Folder: DSC_correction/rawdata (part 4)

File: empty_5
empty
Furnace temperature 	Time	HeatFlow
/°C	/s	/mW
64.8078	0	-0.186906
66.7779	10.5	-0.203155
67.8794	21	-0.308166
67.8337	31.5	-0.449852
67.8377	42	-0.590087
67.739	52.5	-0.712787
67.6178	63	-0.807565
67.4715	73.5	-0.868941
67.312	84	-0.898541
67.1395	94.5	-0.902469
66.9595	105	-0.884114
66.7728	115.5	-0.84165
66.5812	126	-0.788382
66.3853	136.5	-0.725401
66.1863	147	-0.65526
65.9845	157.5	-0.582149
65.9013	168	-0.507288
65.6917	178.5	-0.440636
65.5074	189	-0.367733
65.3084	199.5	-0.304715
65.1021	210	-0.236219
64.893	220.5	-0.178044
64.6819	231	-0.118571
64.4658	241.5	-0.0680728
64.2513	252	-0.0193058
64.0335	262.5	0.0194714
63.8165	273	0.0577211
63.5974	283.5	0.090736
63.3799	294	0.118766
63.1607	304.5	0.144443
62.9414	315	0.165979
62.7234	325.5	0.18821
62.5042	336	0.206947
62.2869	346.5	0.223146
62.0677	357	0.234331
61.8507	367.5	0.250127
61.6322	378	0.256771
61.416	388.5	0.264989
61.1981	399	0.272778
60.9823	409.5	0.283608
60.7651	420	0.288766
60.5488	430.5	0.293817
60.3329	441	0.29757
60.1164	451.5	0.292206
59.902	462	0.296667
59.6854	472.5	0.30256
59.4707	483	0.307298
59.255	493.5	0.306389
59.041	504	0.308143
58.8257	514.5	0.313576
58.6114	525	0.310422
58.3969	535.5	0.309263
58.1839	546	0.31104
57.9683	556.5	0.310371
57.7552	567	0.30767
57.5406	577.5	0.307981
57.3274	588	0.307295
57.113	598.5	0.308896
56.8998	609	0.305306
56.6857	619.5	0.303985
56.4724	630	0.304135
56.2592	640.5	0.301633
56.0451	651	0.302675
55.8329	661.5	0.301537
55.6193	672	0.304744
55.4061	682.5	0.299914
55.1922	693	0.302034
54.9803	703.5	0.297638
54.7662	714	0.295736
54.554	724.5	0.295144
54.3404	735	0.291529
54.128	745.5	0.292067
53.9138	756	0.290018
53.7022	766.5	0.291923
53.4894	777	0.293577
53.2761	787.5	0.291783
53.0626	798	0.287435
52.8511	808.5	0.28471
52.6379	819	0.286109
52.4257	829.5	0.278361
52.2113	840	0.285186
52.0002	850.5	0.277635
51.7867	861	0.282217
51.5747	871.5	0.279105
51.3611	882	0.278771
51.1491	892.5	0.277359
50.9364	903	0.272908
50.7242	913.5	0.270926
50.5111	924	0.273669
50.2989	934.5	0.269123
50.086	945	0.271537
49.8725	955.5	0.268713
49.6608	966	0.264235
49.4479	976.5	0.26702
49.2359	987	0.259935
49.0228	997.5	0.25861
48.8102	1008	0.262186
48.5973	1018.5	0.260659
48.3848	1029	0.258324
48.1722	1039.5	0.258891
47.9603	1050	0.260122
47.7474	1060.5	0.252084
47.535	1071	0.2560184
47.3221	1081.5	0.253661
47.1097	1092	0.251709
46.8973	1102.5	0.252517
46.684	1113	0.250029
46.472	1123.5	0.247872
46.2595	1134	0.246027
46.0473	1144.5	0.245085
45.834	1155	0.241633
45.6224	1165.5	0.241004
45.4088	1176	0.242147
45.1977	1186.5	0.237879
44.9838	1197	0.238948
44.7714	1207.5	0.237099
44.5586	1218	0.234805
44.3465	1228.5	0.231713
44.134	1239	0.231581
43.9222	1249.5	0.232728
43.7098	1260	0.232412
43.4958	1270.5	0.228927
43.284	1281	0.227462
43.0713	1291.5	0.228832
42.8599	1302	0.223526
42.6462	1312.5	0.224989
42.4342	1323	0.22432
42.2215	1333.5	0.220604
42.01	1344	0.220843
41.7961	1354.5	0.216473
41.5852	1365	0.217344
41.3712	1375.5	0.213881
41.1594	1386	0.215553
40.9469	1396.5	0.214509
40.7348	1407	0.213351
40.5222	1417.5	0.209472
40.3083	1428	0.207641
40.0975	1438.5	0.207097
39.8851	1449	0.202072
39.6721	1459.5	0.209312
39.4598	1470	0.2052
39.2471	1480.5	0.201647
39.035	1491	0.1991
38.8217	1501.5	0.20089
38.6095	1512	0.198192
38.3979	1522.5	0.19581
38.1848	1533	0.195242
37.9729	1543.5	0.195181
37.7599	1554	0.19377
37.5482	1564.5	0.195415
37.3358	1575	0.191002
37.1224	1585.5	0.194075
36.9105	1596	0.1877224
36.6974	1606.5	0.18471
36.4852	1617	0.185417
36.2732	1627.5	0.184902
36.0609	1638	0.185083
35.8484	1648.5	0.183948
35.6363	1659	0.182283
35.4233	1669.5	0.178583
35.2116	1680	0.178217
34.9986	1690.5	0.179774
34.7878	1701	0.176558
34.5741	1711.5	0.178324
34.3628	1722	0.176183
34.1492	1732.5	0.172452
33.9372	1743	0.173539
33.725	1753.5	0.171525
33.5125	1764	0.169964
33.2996	1774.5	0.166129
33.0878	1785	0.164242
32.8751	1795.5	0.164211
32.6632	1806	0.164559
32.4507	1816.5	0.163675
32.2386	1827	0.161062
32.0261	1837.5	0.160043
31.8134	1848	0.160315
31.6018	1858.5	0.158877
31.3883	1869	0.157342
31.1771	1879.5	0.155806
30.9641	1890	0.152917
30.752	1900.5	0.152502
30.5402	1911	0.152581
30.3271	1921.5	0.149496
30.1145	1932	0.149308
29.9024	1942.5	0.145454
29.6922	1953	0.14578
29.4776	1963.5	0.145476
29.2666	1974	0.144827
29.0537	1984.5	0.142341
28.8412	1995	0.138762
28.6289	2005.5	0.139297
28.4172	2016	0.136517
28.2051	2026.5	0.135135
27.9919	2037	0.134115
27.7803	2047.5	0.132404
27.5676	2058	0.130153
27.3548	2068.5	0.131224
27.1426	2079	0.129394
26.9311	2089.5	0.129601
26.7188	2100	0.126401
26.5067	2110.5	0.123236
26.2946	2121	0.12319
26.0819	2131.5	0.12272
25.8706	2142	0.120012
25.6571	2152.5	0.121335
25.4452	2163	0.116633
25.2332	2173.5	0.114787
25.0211	2184	0.113189
24.8085	2194.5	0.113216
24.5972	2205	0.109817
24.3848	2215.5	0.107885
24.1721	2226	0.107754
23.9597	2236.5	0.107313
23.7478	2247	0.106387
23.5359	2257.5	0.103478
23.3239	2268	0.102043
23.1118	2278.5	0.10084
22.8998	2289	0.0989355
22.688	2299.5	0.0978268
22.4749	2310	0.09675581
22.2643	2320.5	0.0959951
22.0515	2331	0.0955853
21.8402	2341.5	0.0937505
21.6277	2352	0.09212824
21.4146	2362.5	0.0908951
21.2027	2373	0.0870213
20.9915	2383.5	0.0877789
20.779	2394	0.08475998
20.5665	2404.5	0.0828151
20.3553	2415	0.0824348
20.143	2425.5	0.0803485
19.9319	2436	0.0777106
19.719	2446.5	0.0753447
19.5076	2457	0.0738788
19.2957	2467.5	0.0759889
19.0838	2478	0.07300768
18.8705	2488.5	0.0714595
18.66	2499	0.0704215
18.4476	2509.5	0.0685744
18.2359	2520	0.0670206
18.0246	2530.5	0.0630185
17.8138	2541	0.0619727
17.5999	2551.5	0.0626644
17.3874	2562	0.05788118
17.1775	2572.5	0.0564544
16.9651	2583	0.0550655
16.7538	2593.5	0.0530018
16.5418	2604	0.0541261
16.3299	2614.5	0.0518805
16.1188	2625	0.0502472
15.9064	2635.5	0.0481551
15.6958	2646	0.0446893
15.4842	2656.5	0.0433266
15.2725	2667	0.0400323
15.0608	2677.5	0.0396405
14.8494	2688	0.0386107
14.6385	2698.5	0.0373205
14.4265	2709	0.0338538
14.2152	2719.5	0.0354333
14.0048	2730	0.0328601
13.7935	2740.5	0.0293239
13.5818	2751	0.0290233
13.3714	2761.5	0.0274414
13.1596	2772	0.0261579
12.9495	2782.5	0.0246722
12.7396	2793	0.0217807
12.5283	2803.5	0.0232001
12.3182	2814	0.0212475
12.1077	2824.5	0.02005606
11.8975	2835	0.0199087
11.6865	2845.5	0.01815125
11.4772	2856	0.01715659
11.2678	2866.5	0.0169263
11.0576	2877	0.0177845
10.8491	2887.5	0.0185835
10.6397	2898	0.0172028
10.4302	2908.5	0.0178608
10.2207	2919	0.0168415
10.0113	2929.5	0.0183498
9.80275	2940	0.0190503
9.595	2950.5	0.022547
9.38702	2961	0.0237778
9.17915	2971.5	0.027444
8.972	2982	0.0325151
8.76522	2992.5	0.0377134
8.62687	2999.5	0.0416288

File: empty_6
empty
Furnace temperature 	Time	HeatFlow
/°C	/s	/mW
7.69487	0	0.0459071
5.97441	25.5	0.0753266
5.24855	51	0.171248
5.01239	76.5	0.40975
4.98255	102	0.662746
5.05729	127.5	0.810644
5.19225	153	0.829977
5.10716	178.5	0.755079
5.18856	204	0.630424
5.38067	229.5	0.492783
5.61455	255	0.360238
5.86674	280.5	0.24538
6.1229	306	0.149838
6.37874	331.5	0.0772191
6.63105	357	0.019708
6.87807	382.5	-0.0208609
7.1206	408	-0.0504029
7.36287	433.5	-0.0711152
7.59596	459	-0.0845651
7.82719	484.5	-0.0947032
8.05554	510	-0.0996315
8.28163	535.5	-0.101566
8.50524	561	-0.102456
8.7271	586.5	-0.100863
8.94789	612	-0.100573
9.1673	637.5	-0.0982444
9.38653	663	-0.0960789
9.60533	688.5	-0.0945556
9.8237	714	-0.09349335
10.0411	739.5	-0.0908777
10.2574	765	-0.090059
10.4738	790.5	-0.0890622
10.69	816	-0.088306
10.9067	841.5	-0.087153
11.1235	867	-0.0867367
11.3397	892.5	-0.0863809
11.5553	918	-0.0859463
11.7706	943.5	-0.087238
11.9864	969	-0.0866253
12.2022	994.5	-0.0874197
12.4181	1020	-0.0859965
12.634	1045.5	-0.0871267
12.8492	1071	-0.0873068
13.0646	1096.5	-0.08644
13.2801	1122	-0.086917
13.4952	1147.5	-0.0873931
13.7113	1173	-0.0881647
13.9268	1198.5	-0.087556
14.142	1224	-0.0893505
14.3572	1249.5	-0.0886242
14.572	1275	-0.0887447
14.7873	1300.5	-0.0904765
15.0025	1326	-0.0904386
15.219	1351.5	-0.0900867
15.4342	1377	-0.0902063
15.6495	1402.5	-0.0911884
15.8641	1428	-0.0916603
16.0784	1453.5	-0.09242522
16.2949	1479	-0.0928372
16.5099	1504.5	-0.093444
16.7258	1530	-0.09317103
16.9411	1555.5	-0.093172
17.156	1581	-0.0939344
17.3705	1606.5	-0.0948714
17.5857	1632	-0.0944626
17.8005	1657.5	-0.0949114
18.0161	1683	-0.09615808
18.2313	1708.5	-0.0959829
18.4468	1734	-0.0963138
18.6625	1759.5	-0.0968778
18.8773	1785	-0.09740217
19.0918	1810.5	-0.0985279
19.3068	1836	-0.0985079
19.5225	1861.5	-0.0982747
19.7378	1887	-0.0987784
19.9533	1912.5	-0.100037
20.1683	1938	-0.100133
20.3831	1963.5	-0.100384
20.5977	1989	-0.10104
20.8129	2014.5	-0.101696
21.0289	2040	-0.10237
21.2446	2065.5	-0.103527
21.4596	2091	-0.103737
21.6744	2116.5	-0.103986
21.8891	2142	-0.104312
22.104	2167.5	-0.106004
22.3192	2193	-0.105559
22.5348	2218.5	-0.106634
22.75	2244	-0.1069002
22.9657	2269.5	-0.107282
23.1804	2295	-0.109545
23.3955	2320.5	-0.108735
23.6101	2346	-0.109537
23.8252	2371.5	-0.109649
24.0403	2397	-0.109991
24.2562	2422.5	-0.110677
24.4715	2448	-0.110693
24.6868	2473.5	-0.111569
24.9009	2499	-0.112693
25.1156	2524.5	-0.114008
25.3311	2550	-0.113144
25.5464	2575.5	-0.114286
25.7622	2601	-0.114453
25.9772	2626.5	-0.115307
26.1924	2652	-0.115912
26.4068	2677.5	-0.116879
26.6215	2703	-0.117008
26.8366	2728.5	-0.117364
27.0522	2754	-0.116809
27.2681	2779.5	-0.119009
27.4831	2805	-0.119536
27.6979	2830.5	-0.119873
27.9122	2856	-0.120551
28.127	2881.5	-0.121608
28.3426	2907	-0.122133
28.5585	2932.5	-0.121124
28.7736	2958	-0.12163
28.9888	2983.5	-0.123291
29.2037	3009	-0.123664
29.4184	3034.5	-0.12415
29.633	3060	-0.125184
29.8479	3085.5	-0.125386
30.0635	3111	-0.126646
30.2791	3136.5	-0.126074
30.4943	3162	-0.127955
30.7095	3187.5	-0.128138
30.924	3213	-0.129356
31.1384	3238.5	-0.129369
31.3541	3264	-0.12878
31.5694	3289.5	-0.129866
31.7847	3315	-0.130161
32.0002	3340.5	-0.132411
32.215	3366	-0.13216
32.43	3391.5	-0.131798
32.6444	3417	-0.132243
32.86	3442.5	-0.133101
33.0752	3468	-0.133527
33.2905	3493.5	-0.134327
33.5055	3519	-0.136195
33.7207	3544.5	-0.135664
33.935	3570	-0.135771
34.15	3595.5	-0.135953
34.3647	3621	-0.135461
34.5805	3646.5	-0.136877
34.7965	3672	-0.137694
35.0114	3697.5	-0.138996
35.2266	3723	-0.13886
35.4406	3748.5	-0.1399
35.6552	3774	-0.138757
35.8707	3799.5	-0.136065
36.0868	3825	-0.134851
36.3018	3850.5	-0.138239
36.5165	3876	-0.142983
36.7309	3901.5	-0.144896
36.9459	3927	-0.14569
37.1612	3952.5	-0.147322
37.377	3978	-0.145773
37.592	4003.5	-0.145117
37.8073	4029	-0.144593
38.0214	4054.5	-0.146185
38.2366	4080	-0.1449
38.4515	4105.5	-0.146214
38.6668	4131	-0.144857
38.8816	4156.5	-0.147319
39.0977	4182	-0.147204
39.3124	4207.5	-0.146738
39.5275	4233	-0.149031
39.7418	4258.5	-0.148268
39.9569	4284	-0.147655
40.1721	4309.5	-0.14952
40.388	4335	-0.150313
40.603	4360.5	-0.14983
40.8181	4386	-0.150641
41.0328	4411.5	-0.150657
41.2473	4437	-0.152537
41.4628	4462.5	-0.152093
41.678	4488	-0.152644
41.8932	4513.5	-0.153085
42.1088	4539	-0.154394
42.3233	4564.5	-0.153636
42.5381	4590	-0.153174
42.753	4615.5	-0.153377
42.9687	4641	-0.15345
43.184	4666.5	-0.154701
43.3992	4692	-0.156301
43.6142	4717.5	-0.156503
43.8284	4743	-0.157477
44.0435	4768.5	-0.155107
44.259	4794	-0.158451
44.4744	4819.5	-0.160691
44.6902	4845	-0.1597
44.9041	4870.5	-0.160105
45.1182	4896	-0.158896
45.3341	4921.5	-0.160071
45.549	4947	-0.158589
45.7647	4972.5	-0.158298
45.9801	4998	-0.15777
46.1941	5023.5	-0.1616
46.4095	5049	-0.161566
46.6239	5074.5	-0.161185
46.8396	5100	-0.161042
47.0554	5125.5	-0.161467
47.2706	5151	-0.161654
47.4851	5176.5	-0.1625
47.6998	5202	-0.163088
47.9146	5227.5	-0.164098
48.1297	5253	-0.162223
48.3452	5278.5	-0.163834
48.5602	5304	-0.164789
48.7757	5329.5	-0.165579
48.9904	5355	-0.16533
49.205	5380.5	-0.165245
49.4194	5406	-0.166802
49.6347	5431.5	-0.16628
49.8507	5457	-0.168218
50.0656	5482.5	-0.167223
50.2814	5508	-0.168305
50.4965	5533.5	-0.168641
50.7109	5559	-0.16894
50.9255	5584.5	-0.168003
51.1408	5610	-0.168722
51.3559	5635.5	-0.171548
51.5714	5661	-0.171649
51.7869	5686.5	-0.173094
52.0019	5712	-0.171396
52.2168	5737.5	-0.172424
52.4309	5763	-0.172724
52.646	5788.5	-0.173098
52.8608	5814	-0.172057
53.0764	5839.5	-0.172178
53.2924	5865	-0.172771
53.5072	5890.5	-0.172729
53.7223	5916	-0.173739
53.9371	5941.5	-0.174513
54.1516	5967	-0.175415
54.3662	5992.5	-0.173924
54.5815	6018	-0.173631
54.7971	6043.5	-0.174461
55.013	6069	-0.176069
55.2273	6094.5	-0.174746
55.4426	6120	-0.177711
55.6572	6145.5	-0.173313
55.8718	6171	-0.177887
56.0869	6196.5	-0.177958
56.302	6222	-0.176836
56.5179	6247.5	-0.176167
56.7331	6273	-0.177414
56.9485	6298.5	-0.177234
57.1628	6324	-0.177398
57.3777	6349.5	-0.178952
57.5927	6375	-0.17982
57.8074	6400.5	-0.180039
58.0227	6426	-0.179228
58.2389	6451.5	-0.179755
58.4535	6477	-0.179415
58.6685	6502.5	-0.180898
58.8836	6528	-0.181208
59.0982	6553.5	-0.181537
59.3133	6579	-0.180532
59.5289	6604.5	-0.180357
59.7439	6630	-0.181787
59.9595	6655.5	-0.181865
60.1743	6681	-0.181944
60.3883	6706.5	-0.181824
60.6034	6732	-0.183597
60.8181	6757.5	-0.182488
61.0336	6783	-0.184009
61.2488	6808.5	-0.183225
61.4648	6834	-0.184441
61.6792	6859.5	-0.182974
61.8939	6885	-0.182678
62.108	6910.5	-0.183516
62.3242	6936	-0.184553
62.5393	6961.5	-0.186579
62.7544	6987	-0.184882
62.9699	7012.5	-0.184157
63.1846	7038	-0.186381
63.3993	7063.5	-0.186448
63.6142	7089	-0.187738
63.8293	7114.5	-0.187698
64.045	7140	-0.187497
64.2599	7165.5	-0.186937
64.4752	7191	-0.188605
64.5504	7200	-0.18752

File: empty_7
empty
Furnace temperature 	Time	HeatFlow
/°C	/s	/mW
64.8078	0	-0.188576
66.7779	10.5	-0.207558
67.8794	21	-0.313755
67.8337	31.5	-0.455136
67.8377	42	-0.594976
67.739	52.5	-0.718918
67.6178	63	-0.811898
67.4715	73.5	-0.873634
67.312	84	-0.902643
67.1395	94.5	-0.90929
66.9595	105	-0.888058
66.7728	115.5	-0.845882
66.5812	126	-0.790742
66.3853	136.5	-0.72742
66.1863	147	-0.657655
65.9845	157.5	-0.584094
65.9013	168	-0.507901
65.6917	178.5	-0.434154
65.5074	189	-0.363303
65.3084	199.5	-0.295079
65.1021	210	-0.227446
64.893	220.5	-0.17127
64.6819	231	-0.11403
64.4658	241.5	-0.0637111
64.2513	252	-0.0224423
64.0335	262.5	0.0202286
63.8165	273	0.0564767
63.5974	283.5	0.0887339
63.3799	294	0.120822
63.1607	304.5	0.147401
62.9414	315	0.169913
62.7234	325.5	0.187144
62.5042	336	0.207668
62.2869	346.5	0.227063
62.0677	357	0.232777
61.8507	367.5	0.250559
61.6322	378	0.256137
61.416	388.5	0.266488
61.1981	399	0.27594
60.9823	409.5	0.283878
60.7651	420	0.292145
60.5488	430.5	0.29566
60.3329	441	0.296736
60.1164	451.5	0.296456
59.902	462	0.308608
59.6854	472.5	0.307011
59.4707	483	0.307296
59.255	493.5	0.308995
59.041	504	0.311582
58.8257	514.5	0.316436
58.6114	525	0.313791
58.3969	535.5	0.309134
58.1839	546	0.305635
57.9683	556.5	0.311892
57.7552	567	0.311368
57.5406	577.5	0.310737
57.3274	588	0.30938
57.113	598.5	0.309529
56.8998	609	0.313401
56.6857	619.5	0.309685
56.4724	630	0.310254
56.2592	640.5	0.310044
56.0451	651	0.304417
55.8329	661.5	0.30877
55.6193	672	0.304978
55.4061	682.5	0.303459
55.1922	693	0.301485
54.9803	703.5	0.302258
54.7662	714	0.296189
54.554	724.5	0.29638
54.3404	735	0.296863
54.128	745.5	0.300718
53.9138	756	0.297268
53.7022	766.5	0.293507
53.4894	777	0.295762
53.2761	787.5	0.291561
53.0626	798	0.287816
52.8511	808.5	0.288594
52.6379	819	0.288863
52.4257	829.5	0.286101
52.2113	840	0.28248
52.0002	850.5	0.282895
51.7867	861	0.281483
51.5747	871.5	0.281826
51.3611	882	0.283085
51.1491	892.5	0.281198
50.9364	903	0.277902
50.7242	913.5	0.275867
50.5111	924	0.275845
50.2989	934.5	0.273297
50.086	945	0.273075
49.8725	955.5	0.2686
49.6608	966	0.272393
49.4479	976.5	0.271622
49.2359	987	0.269456
49.0228	997.5	0.265711
48.8102	1008	0.264571
48.5973	1018.5	0.261502
48.3848	1029	0.264716
48.1722	1039.5	0.264055
47.9603	1050	0.253096
47.7474	1060.5	0.254712
47.535	1071	0.256862
47.3221	1081.5	0.255997
47.1097	1092	0.255757
46.8973	1102.5	0.258429
46.684	1113	0.252386
46.472	1123.5	0.253972
46.2595	1134	0.252775
46.0473	1144.5	0.247758
45.834	1155	0.249917
45.6224	1165.5	0.247519
45.4088	1176	0.246873
45.1977	1186.5	0.244417
44.9838	1197	0.245379
44.7714	1207.5	0.242071
44.5586	1218	0.241239
44.3465	1228.5	0.23939
44.134	1239	0.237226
43.9222	1249.5	0.23443
43.7098	1260	0.233484
43.4958	1270.5	0.230168
43.284	1281	0.229684
43.0713	1291.5	0.228831
42.8599	1302	0.230073
42.6462	1312.5	0.22857
42.4342	1323	0.228701
42.2215	1333.5	0.223815
42.01	1344	0.222291
41.7961	1354.5	0.221379
41.5852	1365	0.218979
41.3712	1375.5	0.218066
41.1594	1386	0.219759
40.9469	1396.5	0.214823
40.7348	1407	0.214598
40.5222	1417.5	0.213459
40.3083	1428	0.212301
40.0975	1438.5	0.209203
39.8851	1449	0.211627
39.6721	1459.5	0.208452
39.4598	1470	0.207646
39.2471	1480.5	0.206692
39.035	1491	0.206689
38.8217	1501.5	0.202928
38.6095	1512	0.202346
38.3979	1522.5	0.19791
38.1848	1533	0.19328
37.9729	1543.5	0.19288
37.7599	1554	0.193943
37.5482	1564.5	0.191387
37.3358	1575	0.192113
37.1224	1585.5	0.191337
36.9105	1596	0.192064
36.6974	1606.5	0.192435
36.4852	1617	0.193765
36.2732	1627.5	0.191355
36.0609	1638	0.194212
35.8484	1648.5	0.189503
35.6363	1659	0.190893
35.4233	1669.5	0.187931
35.2116	1680	0.187361
34.9986	1690.5	0.186396
34.7878	1701	0.18273
34.5741	1711.5	0.179138
34.3628	1722	0.178148
34.1492	1732.5	0.17559
33.9372	1743	0.175185
33.725	1753.5	0.173153
33.5125	1764	0.173977
33.2996	1774.5	0.168951
33.0878	1785	0.167066
32.8751	1795.5	0.164874
32.6632	1806	0.167746
32.4507	1816.5	0.164017
32.2386	1827	0.163417
32.0261	1837.5	0.164089
31.8134	1848	0.161342
31.6018	1858.5	0.159809
31.3883	1869	0.158827
31.1771	1879.5	0.15889
30.9641	1890	0.155221
30.752	1900.5	0.154388
30.5402	1911	0.154527
30.3271	1921.5	0.15518
30.1145	1932	0.153239
29.9024	1942.5	0.152824
29.6922	1953	0.149219
29.4776	1963.5	0.148764
29.2666	1974	0.144885
29.0537	1984.5	0.142935
28.8412	1995	0.141959
28.6289	2005.5	0.139086
28.4172	2016	0.13807
28.2051	2026.5	0.138606
27.9919	2037	0.1369358
27.7803	2047.5	0.136243
27.5676	2058	0.13507
27.3548	2068.5	0.131494
27.1426	2079	0.133047
26.9311	2089.5	0.129351
26.7188	2100	0.128673
26.5067	2110.5	0.128303
26.2946	2121	0.124964
26.0819	2131.5	0.123337
25.8706	2142	0.12443
25.6571	2152.5	0.122165
25.4452	2163	0.119222
25.2332	2173.5	0.118246
25.0211	2184	0.116014
24.8085	2194.5	0.115171
24.5972	2205	0.112566
24.3848	2215.5	0.111895
24.1721	2226	0.110119
23.9597	2236.5	0.109524
23.7478	2247	0.107376
23.5359	2257.5	0.104605
23.3239	2268	0.1062987
23.1118	2278.5	0.101365
22.8998	2289	0.0999864
22.688	2299.5	0.0963477
22.4749	2310	0.0984115
22.2643	2320.5	0.0947878
22.0515	2331	0.095352
21.8402	2341.5	0.0906492
21.6277	2352	0.0905084
21.4146	2362.5	0.0885321
21.2027	2373	0.087843
20.9915	2383.5	0.0864103
20.779	2394	0.0871287
20.5665	2404.5	0.0842253
20.3553	2415	0.0818278
20.143	2425.5	0.0786431
19.9319	2436	0.080438
19.719	2446.5	0.0804879
19.5076	2457	0.0767667
19.2957	2467.5	0.076068
19.0838	2478	0.0738142
18.8705	2488.5	0.0709876
18.66	2499	0.07199724
18.4476	2509.5	0.0718455
18.2359	2520	0.0669222
18.0246	2530.5	0.0656819
17.8138	2541	0.062111
17.5999	2551.5	0.060669
17.3874	2562	0.0601938
17.1775	2572.5	0.0590457
16.9651	2583	0.0559958
16.7538	2593.5	0.0548436
16.5418	2604	0.0534323
16.3299	2614.5	0.0480331
16.1188	2625	0.0463972
15.9064	2635.5	0.0464474
15.6958	2646	0.0459014
15.4842	2656.5	0.0431875
15.2725	2667	0.0420221
15.0608	2677.5	0.0406759
14.8494	2688	0.0391885
14.6385	2698.5	0.0358452
14.4265	2709	0.0335548
14.2152	2719.5	0.0323193
14.0048	2730	0.0303032
13.7935	2740.5	0.0291441
13.5818	2751	0.0264232
13.3714	2761.5	0.0274016
13.1596	2772	0.0257374
12.9495	2782.5	0.0235499
12.7396	2793	0.0236859
12.5283	2803.5	0.0190859
12.3182	2814	0.0202033
12.1077	2824.5	0.0196543
11.8975	2835	0.0174754
11.6865	2845.5	0.0166622
11.4772	2856	0.0144986
11.2678	2866.5	0.0135613
11.0576	2877	0.0152642
10.8491	2887.5	0.0140638
10.6397	2898	0.0143559
10.4302	2908.5	0.0161435
10.2207	2919	0.0144155
10.0113	2929.5	0.0166303
9.80275	2940	0.01702586
9.595	2950.5	0.0214126
9.38702	2961	0.0242235
9.17915	2971.5	0.03012063
8.972	2982	0.0380338
8.76522	2992.5	0.048007
8.62687	2999.5	0.051195