Folder: DSC_correction/rawdata (part 3)

File: empty_2
empty
Furnace temperature 	Time	HeatFlow
/°C	/s	/mW
7.69487	0	-0.003844623
5.97441	25.5	0.0743644
5.24855	51	0.352858
5.01239	76.5	0.626607
4.98255	102	0.779492
5.05729	127.5	0.805572
5.19225	153	0.74342
5.10716	178.5	0.633189
5.18856	204	0.50736
5.38067	229.5	0.38664
5.61455	255	0.27829
5.86674	280.5	0.187602
6.1229	306	0.113605
6.37874	331.5	0.0575661
6.63105	357	0.0162395
6.87807	382.5	-0.0146975
7.1206	408	-0.0382461
7.36287	433.5	-0.0532567
7.59596	459	-0.0646298
7.82719	484.5	-0.0717912
8.05554	510	-0.077077
8.28163	535.5	-0.0788274
8.50524	561	-0.0805555
8.7271	586.5	-0.0807398
8.94789	612	-0.0815843
9.1673	637.5	-0.0813281
9.38653	663	-0.0809526
9.60533	688.5	-0.0801985
9.8237	714	-0.0810017
10.0411	739.5	-0.08072754
10.2574	765	-0.0803939
10.4738	790.5	-0.080658
10.69	816	-0.0812404
10.9067	841.5	-0.0810466
11.1235	867	-0.0815687
11.3397	892.5	-0.0814945
11.5553	918	-0.0815791
11.7706	943.5	-0.0830917
11.9864	969	-0.08303652
12.2022	994.5	-0.08422941
12.4181	1020	-0.0838179
12.634	1045.5	-0.0825961
12.8492	1071	-0.083807
13.0646	1096.5	-0.08533255
13.2801	1122	-0.0855139
13.4952	1147.5	-0.08607
13.7113	1173	-0.08662542
13.9268	1198.5	-0.0867865
14.142	1224	-0.0874396
14.3572	1249.5	-0.0884067
14.572	1275	-0.0896087
14.7873	1300.5	-0.0889422
15.0025	1326	-0.090064
15.219	1351.5	-0.0899481
15.4342	1377	-0.0920293
15.6495	1402.5	-0.0934614
15.8641	1428	-0.0946956
16.0784	1453.5	-0.0943818
16.2949	1479	-0.0946164
16.5099	1504.5	-0.0937948
16.7258	1530	-0.09471371
16.9411	1555.5	-0.09539739
17.156	1581	-0.0948899
17.3705	1606.5	-0.0953778
17.5857	1632	-0.0953583
17.8005	1657.5	-0.09526097
18.0161	1683	-0.0949498
18.2313	1708.5	-0.094406
18.4468	1734	-0.0945045
18.6625	1759.5	-0.0951473
18.8773	1785	-0.0942549
19.0918	1810.5	-0.0948777
19.3068	1836	-0.0947242
19.5225	1861.5	-0.09466777
19.7378	1887	-0.0955224
19.9533	1912.5	-0.0955048
20.1683	1938	-0.0950616
20.3831	1963.5	-0.0963017
20.5977	1989	-0.0971345
20.8129	2014.5	-0.0978699
21.0289	2040	-0.0956118
21.2446	2065.5	-0.09731251
21.4596	2091	-0.0973142
21.6744	2116.5	-0.0983378
21.8891	2142	-0.0985319
22.104	2167.5	-0.097821
22.3192	2193	-0.098708
22.5348	2218.5	-0.0985943
22.75	2244	-0.09953814
22.9657	2269.5	-0.100577
23.1804	2295	-0.0999258
23.3955	2320.5	-0.100791
23.6101	2346	-0.101483
23.8252	2371.5	-0.100391
24.0403	2397	-0.102424
24.2562	2422.5	-0.101487
24.4715	2448	-0.101603
24.6868	2473.5	-0.102848
24.9009	2499	-0.103098
25.1156	2524.5	-0.103997
25.3311	2550	-0.103349
25.5464	2575.5	-0.103675
25.7622	2601	-0.103944
25.9772	2626.5	-0.103411
26.1924	2652	-0.104519
26.4068	2677.5	-0.105111
26.6215	2703	-0.106597
26.8366	2728.5	-0.106788
27.0522	2754	-0.106675
27.2681	2779.5	-0.106106
27.4831	2805	-0.107115
27.6979	2830.5	-0.107743
27.9122	2856	-0.108484
28.127	2881.5	-0.108315
28.3426	2907	-0.109036
28.5585	2932.5	-0.108999
28.7736	2958	-0.10972
28.9888	2983.5	-0.109968
29.2037	3009	-0.109875
29.4184	3034.5	-0.110538
29.633	3060	-0.110993
29.8479	3085.5	-0.111845
30.0635	3111	-0.112714
30.2791	3136.5	-0.111527
30.4943	3162	-0.112321
30.7095	3187.5	-0.113548
30.924	3213	-0.114077
31.1384	3238.5	-0.114398
31.3541	3264	-0.115228
31.5694	3289.5	-0.115567
31.7847	3315	-0.115343
32.0002	3340.5	-0.11651
32.215	3366	-0.116643
32.43	3391.5	-0.116081
32.6444	3417	-0.117228
32.86	3442.5	-0.1198
33.0752	3468	-0.117906
33.2905	3493.5	-0.119651
33.5055	3519	-0.118978
33.7207	3544.5	-0.119017
33.935	3570	-0.118046
34.15	3595.5	-0.120368
34.3647	3621	-0.121642
34.5805	3646.5	-0.120821
34.7965	3672	-0.121178
35.0114	3697.5	-0.122357
35.2266	3723	-0.123049
35.4406	3748.5	-0.124376
35.6552	3774	-0.12462
35.8707	3799.5	-0.124192
36.0868	3825	-0.125499
36.3018	3850.5	-0.124942
36.5165	3876	-0.126173
36.7309	3901.5	-0.126976
36.9459	3927	-0.127703
37.1612	3952.5	-0.129062
37.377	3978	-0.128933
37.592	4003.5	-0.129289
37.8073	4029	-0.130275
38.0214	4054.5	-0.130704
38.2366	4080	-0.131485
38.4515	4105.5	-0.131246
38.6668	4131	-0.133251
38.8816	4156.5	-0.132548
39.0977	4182	-0.131939
39.3124	4207.5	-0.13122
39.5275	4233	-0.133667
39.7418	4258.5	-0.134428
39.9569	4284	-0.13469
40.1721	4309.5	-0.135672
40.388	4335	-0.137098
40.603	4360.5	-0.136473
40.8181	4386	-0.13703
41.0328	4411.5	-0.136553
41.2473	4437	-0.138734
41.4628	4462.5	-0.138645
41.678	4488	-0.139976
41.8932	4513.5	-0.139611
42.1088	4539	-0.139983
42.3233	4564.5	-0.140558
42.5381	4590	-0.141611
42.753	4615.5	-0.141578
42.9687	4641	-0.141785
43.184	4666.5	-0.142433
43.3992	4692	-0.143651
43.6142	4717.5	-0.143509
43.8284	4743	-0.144395
44.0435	4768.5	-0.1453
44.259	4794	-0.144736
44.4744	4819.5	-0.144007
44.6902	4845	-0.146802
44.9041	4870.5	-0.146293
45.1182	4896	-0.146721
45.3341	4921.5	-0.147423
45.549	4947	-0.147466
45.7647	4972.5	-0.146923
45.9801	4998	-0.147369
46.1941	5023.5	-0.149207
46.4095	5049	-0.149927
46.6239	5074.5	-0.150245
46.8396	5100	-0.150709
47.0554	5125.5	-0.150534
47.2706	5151	-0.151419
47.4851	5176.5	-0.150477
47.6998	5202	-0.152805
47.9146	5227.5	-0.152941
48.1297	5253	-0.15304
48.3452	5278.5	-0.153907
48.5602	5304	-0.154189
48.7757	5329.5	-0.155074
48.9904	5355	-0.154846
49.205	5380.5	-0.15451
49.4194	5406	-0.154829
49.6347	5431.5	-0.157099
49.8507	5457	-0.159531
50.0656	5482.5	-0.157975
50.2814	5508	-0.157876
50.4965	5533.5	-0.15978
50.7109	5559	-0.157207
50.9255	5584.5	-0.159165
51.1408	5610	-0.160068
51.3559	5635.5	-0.160061
51.5714	5661	-0.160455
51.7869	5686.5	-0.160558
52.0019	5712	-0.159391
52.2168	5737.5	-0.159386
52.4309	5763	-0.16127
52.646	5788.5	-0.158852
52.8608	5814	-0.162133
53.0764	5839.5	-0.161095
53.2924	5865	-0.16305
53.5072	5890.5	-0.162757
53.7223	5916	-0.163516
53.9371	5941.5	-0.163912
54.1516	5967	-0.163638
54.3662	5992.5	-0.165194
54.5815	6018	-0.165808
54.7971	6043.5	-0.165535
55.013	6069	-0.164141
55.2273	6094.5	-0.166167
55.4426	6120	-0.167832
55.6572	6145.5	-0.166403
55.8718	6171	-0.167307
56.0869	6196.5	-0.167417
56.302	6222	-0.169298
56.5179	6247.5	-0.167709
56.7331	6273	-0.169499
56.9485	6298.5	-0.170929
57.1628	6324	-0.17001
57.3777	6349.5	-0.169959
57.5927	6375	-0.171749
57.8074	6400.5	-0.172095
58.0227	6426	-0.17033
58.2389	6451.5	-0.171598
58.4535	6477	-0.174074
58.6685	6502.5	-0.175125
58.8836	6528	-0.174932
59.0982	6553.5	-0.175767
59.3133	6579	-0.175159
59.5289	6604.5	-0.17659
59.7439	6630	-0.177479
59.9595	6655.5	-0.176423
60.1743	6681	-0.176646
60.3883	6706.5	-0.17842
60.6034	6732	-0.180481
60.8181	6757.5	-0.180219
61.0336	6783	-0.179633
61.2488	6808.5	-0.179858
61.4648	6834	-0.179112
61.6792	6859.5	-0.179266
61.8939	6885	-0.180789
62.108	6910.5	-0.179468
62.3242	6936	-0.181854
62.5393	6961.5	-0.183719
62.7544	6987	-0.182112
62.9699	7012.5	-0.183024
63.1846	7038	-0.184421
63.3993	7063.5	-0.185334
63.6142	7089	-0.186282
63.8293	7114.5	-0.185164
64.045	7140	-0.187209
64.2599	7165.5	-0.184942
64.4752	7191	-0.185389
64.5504	7200	-0.186047

File: empty_3
empty
Furnace temperature 	Time	HeatFlow
/°C	/s	/mW
64.8078	0	-0.186439
66.7779	10.5	-0.202832
67.8794	21	-0.308489
67.8337	31.5	-0.449924
67.8377	42	-0.589224
67.739	52.5	-0.712428
67.6178	63	-0.805821
67.4715	73.5	-0.866801
67.312	84	-0.897228
67.1395	94.5	-0.897253
66.9595	105	-0.87753
66.7728	115.5	-0.837062
66.5812	126	-0.784801
66.3853	136.5	-0.722882
66.1863	147	-0.652489
65.9845	157.5	-0.582454
65.9013	168	-0.508152
65.6917	178.5	-0.435018
65.5074	189	-0.367409
65.3084	199.5	-0.299527
65.1021	210	-0.239516
64.893	220.5	-0.174909
64.6819	231	-0.118878
64.4658	241.5	-0.0662885
64.2513	252	-0.0216132
64.0335	262.5	0.017326
63.8165	273	0.0533573
63.5974	283.5	0.0854877
63.3799	294	0.113373
63.1607	304.5	0.141755
62.9414	315	0.167459
62.7234	325.5	0.18673
62.5042	336	0.20395
62.2869	346.5	0.218415
62.0677	357	0.231026
61.8507	367.5	0.243516
61.6322	378	0.252362
61.416	388.5	0.262026
61.1981	399	0.271567
60.9823	409.5	0.278763
60.7651	420	0.2843
60.5488	430.5	0.2887896
60.3329	441	0.28943
60.1164	451.5	0.294757
59.902	462	0.299417
59.6854	472.5	0.302179
59.4707	483	0.301776
59.255	493.5	0.304831
59.041	504	0.304393
58.8257	514.5	0.3001329
58.6114	525	0.305748
58.3969	535.5	0.308538
58.1839	546	0.3077223
57.9683	556.5	0.30406
57.7552	567	0.305657
57.5406	577.5	0.305768
57.3274	588	0.304047
57.113	598.5	0.305574
56.8998	609	0.304652
56.6857	619.5	0.302677
56.4724	630	0.298431
56.2592	640.5	0.300144
56.0451	651	0.295823
55.8329	661.5	0.301609
55.6193	672	0.298398
55.4061	682.5	0.296786
55.1922	693	0.298376
54.9803	703.5	0.294545
54.7662	714	0.288509
54.554	724.5	0.290192
54.3404	735	0.291748
54.128	745.5	0.289097
53.9138	756	0.2878308
53.7022	766.5	0.288715
53.4894	777	0.284896
53.2761	787.5	0.284524
53.0626	798	0.283458
52.8511	808.5	0.280493
52.6379	819	0.281582
52.4257	829.5	0.280972
52.2113	840	0.276929
52.0002	850.5	0.276465
51.7867	861	0.274503
51.5747	871.5	0.27574
51.3611	882	0.273686
51.1491	892.5	0.270479
50.9364	903	0.267582
50.7242	913.5	0.268582
50.5111	924	0.26627
50.2989	934.5	0.265514
50.086	945	0.261624
49.8725	955.5	0.259529
49.6608	966	0.261998
49.4479	976.5	0.261425
49.2359	987	0.258889
49.0228	997.5	0.255966
48.8102	1008	0.253116
48.5973	1018.5	0.259778
48.3848	1029	0.257203
48.1722	1039.5	0.254572
47.9603	1050	0.252179
47.7474	1060.5	0.251606
47.535	1071	0.250259
47.3221	1081.5	0.250385
47.1097	1092	0.249075
46.8973	1102.5	0.242811
46.684	1113	0.243452
46.472	1123.5	0.242508
46.2595	1134	0.241417
46.0473	1144.5	0.239182
45.834	1155	0.239972
45.6224	1165.5	0.240284
45.4088	1176	0.237179
45.1977	1186.5	0.233999
44.9838	1197	0.230743
44.7714	1207.5	0.233789
44.5586	1218	0.227517
44.3465	1228.5	0.227809
44.134	1239	0.225677
43.9222	1249.5	0.226135
43.7098	1260	0.225298
43.4958	1270.5	0.223998
43.284	1281	0.225274
43.0713	1291.5	0.221209
42.8599	1302	0.218015
42.6462	1312.5	0.218697
42.4342	1323	0.216855
42.2215	1333.5	0.216683
42.01	1344	0.216197
41.7961	1354.5	0.211787
41.5852	1365	0.214554
41.3712	1375.5	0.211387
41.1594	1386	0.211551
40.9469	1396.5	0.209759
40.7348	1407	0.207407
40.5222	1417.5	0.207235
40.3083	1428	0.202271
40.0975	1438.5	0.20413
39.8851	1449	0.201027
39.6721	1459.5	0.200089
39.4598	1470	0.201333
39.2471	1480.5	0.197125
39.035	1491	0.19551
38.8217	1501.5	0.195953
38.6095	1512	0.19531
38.3979	1522.5	0.189763
38.1848	1533	0.192358
37.9729	1543.5	0.191208
37.7599	1554	0.18914
37.5482	1564.5	0.1878943
37.3358	1575	0.183834
37.1224	1585.5	0.184369
36.9105	1596	0.185882
36.6974	1606.5	0.182849
36.4852	1617	0.179382
36.2732	1627.5	0.179636
36.0609	1638	0.177293
35.8484	1648.5	0.177471
35.6363	1659	0.179326
35.4233	1669.5	0.172666
35.2116	1680	0.173258
34.9986	1690.5	0.169946
34.7878	1701	0.172143
34.5741	1711.5	0.168639
34.3628	1722	0.171442
34.1492	1732.5	0.17162
33.9372	1743	0.170117
33.725	1753.5	0.17039
33.5125	1764	0.165932
33.2996	1774.5	0.162663
33.0878	1785	0.161987
32.8751	1795.5	0.15968
32.6632	1806	0.159837
32.4507	1816.5	0.158096
32.2386	1827	0.154247
32.0261	1837.5	0.156225
31.8134	1848	0.152505
31.6018	1858.5	0.150511
31.3883	1869	0.150703
31.1771	1879.5	0.149639
30.9641	1890	0.147603
30.752	1900.5	0.14791
30.5402	1911	0.14875
30.3271	1921.5	0.142744
30.1145	1932	0.14635
29.9024	1942.5	0.145569
29.6922	1953	0.145856
29.4776	1963.5	0.138728
29.2666	1974	0.140563
29.0537	1984.5	0.138208
28.8412	1995	0.135986
28.6289	2005.5	0.13652
28.4172	2016	0.137935
28.2051	2026.5	0.135288
27.9919	2037	0.134537
27.7803	2047.5	0.132327
27.5676	2058	0.130037
27.3548	2068.5	0.129072
27.1426	2079	0.127356
26.9311	2089.5	0.124098
26.7188	2100	0.122185
26.5067	2110.5	0.122562
26.2946	2121	0.118276
26.0819	2131.5	0.119635
25.8706	2142	0.119259
25.6571	2152.5	0.117396
25.4452	2163	0.115493
25.2332	2173.5	0.116758
25.0211	2184	0.11433
24.8085	2194.5	0.111571
24.5972	2205	0.109042
24.3848	2215.5	0.108156
24.1721	2226	0.106591
23.9597	2236.5	0.10452
23.7478	2247	0.104077
23.5359	2257.5	0.105206
23.3239	2268	0.100625
23.1118	2278.5	0.0992458
22.8998	2289	0.0980988
22.688	2299.5	0.0963278
22.4749	2310	0.0975151
22.2643	2320.5	0.0942414
22.0515	2331	0.09170492
21.8402	2341.5	0.0893407
21.6277	2352	0.0873253
21.4146	2362.5	0.0863432
21.2027	2373	0.0842847
20.9915	2383.5	0.0860571
20.779	2394	0.0837229
20.5665	2404.5	0.0824034
20.3553	2415	0.0825324
20.143	2425.5	0.0793486
19.9319	2436	0.0801236
19.719	2446.5	0.0755995
19.5076	2457	0.0746252
19.2957	2467.5	0.0724115
19.0838	2478	0.0705686
18.8705	2488.5	0.07035695
18.66	2499	0.0689246
18.4476	2509.5	0.069638
18.2359	2520	0.068598
18.0246	2530.5	0.0656623
17.8138	2541	0.0634731
17.5999	2551.5	0.0624074
17.3874	2562	0.0611823
17.1775	2572.5	0.058927
16.9651	2583	0.0583314
16.7538	2593.5	0.0543881
16.5418	2604	0.0538881
16.3299	2614.5	0.0530307
16.1188	2625	0.050763
15.9064	2635.5	0.0483733
15.6958	2646	0.0489811
15.4842	2656.5	0.0479991
15.2725	2667	0.0454043
15.0608	2677.5	0.0435625
14.8494	2688	0.0420372
14.6385	2698.5	0.0399118
14.4265	2709	0.0413147
14.2152	2719.5	0.0389463
14.0048	2730	0.0374341
13.7935	2740.5	0.0362397
13.5818	2751	0.0341435
13.3714	2761.5	0.0329054
13.1596	2772	0.0309846
12.9495	2782.5	0.0310254
12.7396	2793	0.0264132
12.5283	2803.5	0.0254074
12.3182	2814	0.0244604
12.1077	2824.5	0.0262251
11.8975	2835	0.0246341
11.6865	2845.5	0.0243288
11.4772	2856	0.0219891
11.2678	2866.5	0.0213792
11.0576	2877	0.0221799
10.8491	2887.5	0.02360733
10.6397	2898	0.020534
10.4302	2908.5	0.02127531
10.2207	2919	0.0190249
10.0113	2929.5	0.0238927
9.80275	2940	0.0269448
9.595	2950.5	0.0314796
9.38702	2961	0.0341348
9.17915	2971.5	0.0380708
8.972	2982	0.0439393
8.76522	2992.5	0.04916428
8.62687	2999.5	0.0539373

File: empty_4
empty
Furnace temperature 	Time	HeatFlow
/°C	/s	/mW
7.69487	0	0.0572434
5.97441	25.5	0.0735984
5.24855	51	0.159232
5.01239	76.5	0.399093
4.98255	102	0.668065
5.05729	127.5	0.830364
5.19225	153	0.856702
5.10716	178.5	0.783563
5.18856	204	0.654572
5.38067	229.5	0.50907
5.61455	255	0.370518
5.86674	280.5	0.248721
6.1229	306	0.150043
6.37874	331.5	0.0732072
6.63105	357	0.0152547
6.87807	382.5	-0.02712328
7.1206	408	-0.0576866
7.36287	433.5	-0.0799213
7.59596	459	-0.0945899
7.82719	484.5	-0.103797
8.05554	510	-0.109782
8.28163	535.5	-0.112251
8.50524	561	-0.112252
8.7271	586.5	-0.111313
8.94789	612	-0.109475
9.1673	637.5	-0.10724
9.38653	663	-0.106207
9.60533	688.5	-0.103339
9.8237	714	-0.101573
10.0411	739.5	-0.100128
10.2574	765	-0.0984064
10.4738	790.5	-0.0968665
10.69	816	-0.0963634
10.9067	841.5	-0.096259
11.1235	867	-0.0950818
11.3397	892.5	-0.0948594
11.5553	918	-0.0945183
11.7706	943.5	-0.0945547
11.9864	969	-0.0931445
12.2022	994.5	-0.0930435
12.4181	1020	-0.0934969
12.634	1045.5	-0.0927234
12.8492	1071	-0.0938289
13.0646	1096.5	-0.09329357
13.2801	1122	-0.0931935
13.4952	1147.5	-0.0927386
13.7113	1173	-0.0933884
13.9268	1198.5	-0.0934857
14.142	1224	-0.0942918
14.3572	1249.5	-0.09383779
14.572	1275	-0.0939941
14.7873	1300.5	-0.0941308
15.0025	1326	-0.0950334
15.219	1351.5	-0.0950124
15.4342	1377	-0.0953642
15.6495	1402.5	-0.09493167
15.8641	1428	-0.0952443
16.0784	1453.5	-0.09559606
16.2949	1479	-0.0953018
16.5099	1504.5	-0.09506648
16.7258	1530	-0.0961212
16.9411	1555.5	-0.0964327
17.156	1581	-0.0963343
17.3705	1606.5	-0.0967822
17.5857	1632	-0.0971714
17.8005	1657.5	-0.0978525
18.0161	1683	-0.0980655
18.2313	1708.5	-0.0976556
18.4468	1734	-0.0981799
18.6625	1759.5	-0.09775155
18.8773	1785	-0.0982756
19.0918	1810.5	-0.0987991
19.3068	1836	-0.0987014
19.5225	1861.5	-0.0988945
19.7378	1887	-0.0993396
19.9533	1912.5	-0.0995714
20.1683	1938	-0.100461
20.3831	1963.5	-0.100808
20.5977	1989	-0.101039
20.8129	2014.5	-0.101831
21.0289	2040	-0.101211
21.2446	2065.5	-0.102156
21.4596	2091	-0.103004
21.6744	2116.5	-0.103118
21.8891	2142	-0.104369
22.104	2167.5	-0.104001
22.3192	2193	-0.105193
22.5348	2218.5	-0.105652
22.75	2244	-0.106592
22.9657	2269.5	-0.107166
23.1804	2295	-0.106626
23.3955	2320.5	-0.107641
23.6101	2346	-0.108712
23.8252	2371.5	-0.108269
24.0403	2397	-0.10817
24.2562	2422.5	-0.107709
24.4715	2448	-0.1092
24.6868	2473.5	-0.110115
24.9009	2499	-0.111049
25.1156	2524.5	-0.110932
25.3311	2550	-0.111425
25.5464	2575.5	-0.1117469
25.7622	2601	-0.112202
25.9772	2626.5	-0.112123
26.1924	2652	-0.113988
26.4068	2677.5	-0.115451
26.6215	2703	-0.114781
26.8366	2728.5	-0.115405
27.0522	2754	-0.115649
27.2681	2779.5	-0.114942
27.4831	2805	-0.116972
27.6979	2830.5	-0.117177
27.9122	2856	-0.118369
28.127	2881.5	-0.11808
28.3426	2907	-0.117736
28.5585	2932.5	-0.119778
28.7736	2958	-0.119453
28.9888	2983.5	-0.120509
29.2037	3009	-0.120751
29.4184	3034.5	-0.12156
29.633	3060	-0.122217
29.8479	3085.5	-0.123536
30.0635	3111	-0.124305
30.2791	3136.5	-0.123301
30.4943	3162	-0.124749
30.7095	3187.5	-0.125084
30.924	3213	-0.126718
31.1384	3238.5	-0.125264
31.3541	3264	-0.12573
31.5694	3289.5	-0.127401
31.7847	3315	-0.127134
32.0002	3340.5	-0.127449
32.215	3366	-0.128009
32.43	3391.5	-0.129244
32.6444	3417	-0.129484
32.86	3442.5	-0.129254
33.0752	3468	-0.130338
33.2905	3493.5	-0.131497
33.5055	3519	-0.132241
33.7207	3544.5	-0.132687
33.935	3570	-0.133599
34.15	3595.5	-0.132435
34.3647	3621	-0.134002
34.5805	3646.5	-0.134578
34.7965	3672	-0.135788
35.0114	3697.5	-0.135261
35.2266	3723	-0.135294
35.4406	3748.5	-0.135571
35.6552	3774	-0.136295
35.8707	3799.5	-0.138212
36.0868	3825	-0.137984
36.3018	3850.5	-0.138558
36.5165	3876	-0.139504
36.7309	3901.5	-0.13976
36.9459	3927	-0.139887
37.1612	3952.5	-0.140405
37.377	3978	-0.140829
37.592	4003.5	-0.141848
37.8073	4029	-0.142625
38.0214	4054.5	-0.141897
38.2366	4080	-0.142674
38.4515	4105.5	-0.142746
38.6668	4131	-0.143893
38.8816	4156.5	-0.143316
39.0977	4182	-0.143295
39.3124	4207.5	-0.145127
39.5275	4233	-0.145699
39.7418	4258.5	-0.146566
39.9569	4284	-0.145362
40.1721	4309.5	-0.147746
40.388	4335	-0.147319
40.603	4360.5	-0.147502
40.8181	4386	-0.147002
41.0328	4411.5	-0.147925
41.2473	4437	-0.147408
41.4628	4462.5	-0.14975
41.678	4488	-0.151059
41.8932	4513.5	-0.149694
42.1088	4539	-0.15091
42.3233	4564.5	-0.151168
42.5381	4590	-0.151205
42.753	4615.5	-0.151536
42.9687	4641	-0.152291
43.184	4666.5	-0.153745
43.3992	4692	-0.153745
43.6142	4717.5	-0.154408
43.8284	4743	-0.153784
44.0435	4768.5	-0.153272
44.259	4794	-0.15421
44.4744	4819.5	-0.153882
44.6902	4845	-0.15548
44.9041	4870.5	-0.155648
45.1182	4896	-0.15554
45.3341	4921.5	-0.15646
45.549	4947	-0.157233
45.7647	4972.5	-0.157712
45.9801	4998	-0.157898
46.1941	5023.5	-0.159147
46.4095	5049	-0.15948
46.6239	5074.5	-0.159593
46.8396	5100	-0.160037
47.0554	5125.5	-0.159529
47.2706	5151	-0.16202
47.4851	5176.5	-0.16175
47.6998	5202	-0.161992
47.9146	5227.5	-0.161724
48.1297	5253	-0.161857
48.3452	5278.5	-0.159692
48.5602	5304	-0.162727
48.7757	5329.5	-0.161804
48.9904	5355	-0.162595
49.205	5380.5	-0.162821
49.4194	5406	-0.164742
49.6347	5431.5	-0.165077
49.8507	5457	-0.16483
50.0656	5482.5	-0.16482
50.2814	5508	-0.166685
50.4965	5533.5	-0.164274
50.7109	5559	-0.165993
50.9255	5584.5	-0.167149
51.1408	5610	-0.167195
51.3559	5635.5	-0.167677
51.5714	5661	-0.168432
51.7869	5686.5	-0.167807
52.0019	5712	-0.168454
52.2168	5737.5	-0.168883
52.4309	5763	-0.167043
52.646	5788.5	-0.170086
52.8608	5814	-0.169971
53.0764	5839.5	-0.168586
53.2924	5865	-0.170866
53.5072	5890.5	-0.171696
53.7223	5916	-0.170585
53.9371	5941.5	-0.171596
54.1516	5967	-0.171483
54.3662	5992.5	-0.171969
54.5815	6018	-0.172744
54.7971	6043.5	-0.173719
55.013	6069	-0.172883
55.2273	6094.5	-0.173967
55.4426	6120	-0.172753
55.6572	6145.5	-0.175483
55.8718	6171	-0.174144
56.0869	6196.5	-0.17653
56.302	6222	-0.174089
56.5179	6247.5	-0.174649
56.7331	6273	-0.176547
56.9485	6298.5	-0.17933
57.1628	6324	-0.177542
57.3777	6349.5	-0.177634
57.5927	6375	-0.177563
57.8074	6400.5	-0.178522
58.0227	6426	-0.178218
58.2389	6451.5	-0.177842
58.4535	6477	-0.17734
58.6685	6502.5	-0.178282
58.8836	6528	-0.178936
59.0982	6553.5	-0.178399
59.3133	6579	-0.178567
59.5289	6604.5	-0.178735
59.7439	6630	-0.180795
59.9595	6655.5	-0.179468
60.1743	6681	-0.181439
60.3883	6706.5	-0.181338
60.6034	6732	-0.181598
60.8181	6757.5	-0.183569
61.0336	6783	-0.180948
61.2488	6808.5	-0.182145
61.4648	6834	-0.181686
61.6792	6859.5	-0.182686
61.8939	6885	-0.18356
62.108	6910.5	-0.184344
62.3242	6936	-0.183078
62.5393	6961.5	-0.184114
62.7544	6987	-0.181842
62.9699	7012.5	-0.183455
63.1846	7038	-0.18604
63.3993	7063.5	-0.183859
63.6142	7089	-0.184862
63.8293	7114.5	-0.184624
64.045	7140	-0.186257
64.2599	7165.5	-0.185175
64.4752	7191	-0.1860715
64.5504	7200	-0.186442