Folder: DSC_correction/rawdata (part 2)

File: buffer_heating1
H2O_H2O
Furnace temperature 	Time	HeatFlow
/°C	/s	/mW
7.77207	0.000000000	0.0118586
6.10646	25.5	0.0747725
5.34037	51	0.223148
5.0723	76.5	0.28518
5.02177	102	0.260898
5.0849	127.5	0.200398
5.21169	153	0.137546
5.11096	178.5	0.0832716
5.17525	204	0.0407706
5.36127	229.5	0.0105988
5.59493	255	-0.0135815
5.84456	280.5	-0.0319479
6.10239	306	-0.0424568
6.35931	331.5	-0.0515789
6.61428	357	-0.0575247
6.8672	382.5	-0.0619321
7.11209	408	-0.0656896
7.35167	433.5	-0.0698843
7.58743	459	-0.0734908
7.81968	484.5	-0.0747234
8.04885	510	-0.0758947
8.27477	535.5	-0.0774053
8.49966	561	-0.0766501
8.72183	586.5	-0.0781782
8.94264	612	-0.0780642
9.16245	637.5	-0.0778704
9.38187	663	-0.0785163
9.60094	688.5	-0.0775043
9.81858	714	-0.0783094
10.0363	739.5	-0.0778772
10.2527	765	-0.0778045
10.4693	790.5	-0.0798625
10.6867	816	-0.0784757
10.9033	841.5	-0.079119
11.119	867	-0.079841
11.335	892.5	-0.0790925
11.5509	918	-0.0795557
11.7672	943.5	-0.0799788
11.983	969	-0.0812538
12.1994	994.5	-0.0811409
12.4145	1020	-0.0813844
12.63	1045.5	-0.0810342
12.8451	1071	-0.0816136
13.0609	1096.5	-0.0833579
13.2769	1122	-0.0827906
13.493	1147.5	-0.0840784
13.708	1173	-0.0846549
13.9235	1198.5	-0.0844426
14.1386	1224	-0.0852939
14.3543	1249.5	-0.085377
14.5698	1275	-0.0860108
14.7853	1300.5	-0.0866636
15.0007	1326	-0.0856659
15.2156	1351.5	-0.0863966
15.4301	1377	-0.0870677
15.6456	1402.5	-0.0873266
15.8615	1428	-0.0875851
16.077	1453.5	-0.0888421
16.2923	1479	-0.0894911
16.507	1504.5	-0.0897873
16.7221	1530	-0.0904937
16.9369	1555.5	-0.0913361
17.1526	1581	-0.0916702
17.3684	1606.5	-0.0923746
17.5836	1632	-0.0929419
17.7988	1657.5	-0.0930409
18.0135	1683	-0.0935293
18.2288	1708.5	-0.0940757
18.4445	1734	-0.0946801
18.6598	1759.5	-0.0958863
18.8747	1785	-0.0960813
19.0901	1810.5	-0.0971106
19.3044	1836	-0.0974988
19.5198	1861.5	-0.0983327
19.7356	1887	-0.098817
19.9508	1912.5	-0.0992234
20.1665	1938	-0.100732
20.381	1963.5	-0.10137
20.5957	1989	-0.102238
20.8111	2014.5	-0.102951
21.0269	2040	-0.103953
21.242	2065.5	-0.103855
21.4569	2091	-0.10501
21.6718	2116.5	-0.106299
21.8871	2142	-0.105024
22.1028	2167.5	-0.107678
22.3181	2193	-0.107059
22.5334	2218.5	-0.10921
22.748	2244	-0.110571
22.9631	2269.5	-0.111085
23.1778	2295	-0.111867
23.3935	2320.5	-0.111268
23.6092	2346	-0.112452
23.8245	2371.5	-0.11354
24.0386	2397	-0.11386
24.2532	2422.5	-0.115042
24.4684	2448	-0.116892
24.6838	2473.5	-0.116962
24.8987	2499	-0.118599
25.1142	2524.5	-0.118631
25.3289	2550	-0.120781
25.5435	2575.5	-0.121174
25.7589	2601	-0.121414
25.9744	2626.5	-0.122512
26.1895	2652	-0.122866
26.4056	2677.5	-0.123715
26.6204	2703	-0.123479
26.8349	2728.5	-0.124688
27.0499	2754	-0.123653
27.2657	2779.5	-0.125545
27.4808	2805	-0.125081
27.6961	2830.5	-0.125738
27.9114	2856	-0.12685
28.1262	2881.5	-0.127676
28.341	2907	-0.128274
28.5557	2932.5	-0.128189
28.7713	2958	-0.129014
28.9868	2983.5	-0.129252
29.2025	3009	-0.130587
29.4172	3034.5	-0.130503
29.6321	3060	-0.132459
29.8468	3085.5	-0.133168
30.0622	3111	-0.133441
30.2775	3136.5	-0.134866
30.493	3162	-0.13465
30.7082	3187.5	-0.135508
30.9228	3213	-0.135649
31.1377	3238.5	-0.136939
31.3524	3264	-0.1374
31.5678	3289.5	-0.137786
31.7835	3315	-0.139507
31.9993	3340.5	-0.139703
32.2137	3366	-0.140427
32.4288	3391.5	-0.140623
32.6435	3417	-0.141214
32.8585	3442.5	-0.142143
33.0739	3468	-0.143258
33.2892	3493.5	-0.142686
33.5043	3519	-0.143464
33.7194	3544.5	-0.143379
33.9338	3570	-0.144212
34.1488	3595.5	-0.145456
34.3642	3621	-0.145503
34.5796	3646.5	-0.146092
34.7951	3672	-0.146195
35.0099	3697.5	-0.147045
35.2247	3723	-0.146606
35.4398	3748.5	-0.146952
35.6546	3774	-0.147727
35.8702	3799.5	-0.14867
36.0852	3825	-0.148904
36.3002	3850.5	-0.149305
36.5151	3876	-0.149781
36.7298	3901.5	-0.151522
36.9454	3927	-0.151737
37.161	3952.5	-0.151617
37.376	3978	-0.152706
37.591	4003.5	-0.153608
37.806	4029	-0.152151
38.0203	4054.5	-0.153221
38.236	4080	-0.153455
38.451	4105.5	-0.1538
38.6661	4131	-0.154035
38.881	4156.5	-0.155418
39.0958	4182	-0.154633
39.3112	4207.5	-0.154701
39.5262	4233	-0.155195
39.7416	4258.5	-0.155818
39.9573	4284	-0.155628
40.1719	4309.5	-0.156066
40.3864	4335	-0.155932
40.6012	4360.5	-0.155447
40.8164	4386	-0.157732
41.0316	4411.5	-0.156915
41.2469	4437	-0.156358
41.4625	4462.5	-0.157424
41.6774	4488	-0.153231
41.8917	4513.5	-0.153672
42.1069	4539	-0.158371
42.3221	4564.5	-0.161739
42.5371	4590	-0.162675
42.7533	4615.5	-0.157148
42.9759	4641	-0.158012
43.1954	4666.5	-0.15963
43.4073	4692	-0.160456
43.6175	4717.5	-0.160546
43.8284	4743	-0.161721
44.0525	4768.5	-0.160673
44.2649	4794	-0.161921
44.4785	4819.5	-0.161371
44.6906	4845	-0.165079
44.9061	4870.5	-0.161794
45.1197	4896	-0.159814
45.3343	4921.5	-0.158808
45.5481	4947	-0.159946
45.7631	4972.5	-0.158995
45.9683	4998	-0.156487
46.1849	5023.5	-0.160005
46.4026	5049	-0.162992
46.6218	5074.5	-0.163598
46.8355	5100	-0.163492
47.0507	5125.5	-0.164519
47.2796	5151	-0.164632
47.4927	5176.5	-0.166372
47.7072	5202	-0.164823
47.9212	5227.5	-0.164243
48.1376	5253	-0.162277
48.3493	5278.5	-0.164838
48.5628	5304	-0.16488
48.7747	5329.5	-0.164776
48.9911	5355	-0.1646
49.2049	5380.5	-0.165154
49.4229	5406	-0.162847
49.6359	5431.5	-0.16433
49.8493	5457	-0.165012
50.065	5482.5	-0.164347
50.2793	5508	-0.163828
50.4951	5533.5	-0.163218
50.7115	5559	-0.160717
50.9273	5584.5	-0.164566
51.1396	5610	-0.163322
51.3548	5635.5	-0.164842
51.5688	5661	-0.162799
51.7818	5686.5	-0.162974
52.0035	5712	-0.162224
52.2196	5737.5	-0.1624
52.4342	5763	-0.162504
52.6458	5788.5	-0.163588
52.8646	5814	-0.163657
53.0764	5839.5	-0.164759
53.296	5865	-0.162923
53.5095	5890.5	-0.163536
53.724	5916	-0.165057
53.9379	5941.5	-0.167066
54.1506	5967	-0.165179
54.367	5992.5	-0.166028
54.5852	6018	-0.16302
54.7986	6043.5	-0.163508
55.0138	6069	-0.16367
55.2255	6094.5	-0.163417
55.4397	6120	-0.164069
55.6531	6145.5	-0.164775
55.8685	6171	-0.16369
56.0861	6196.5	-0.163691
56.3015	6222	-0.164471
56.5167	6247.5	-0.165214
56.7318	6273	-0.16491
56.9462	6298.5	-0.166195
57.1613	6324	-0.165313
57.3781	6349.5	-0.16398
57.5928	6375	-0.164328
57.8103	6400.5	-0.164621
58.0255	6426	-0.165385
58.2369	6451.5	-0.164001
58.4518	6477	-0.164692
58.6679	6502.5	-0.16284
58.8838	6528	-0.16218
59.1008	6553.5	-0.162873
59.3153	6579	-0.163783
59.5271	6604.5	-0.164007
59.7421	6630	-0.163799
59.9592	6655.5	-0.163916
60.1745	6681	-0.163547
60.388	6706.5	-0.163287
60.6035	6732	-0.163983
60.8181	6757.5	-0.162101
61.0318	6783	-0.162293
61.246	6808.5	-0.163385
61.4618	6834	-0.163505
61.6802	6859.5	-0.165281
61.8945	6885	-0.16632
62.114	6910.5	-0.165235
62.3275	6936	-0.163288
62.5408	6961.5	-0.162852
62.7552	6987	-0.161338
62.969	7012.5	-0.16236
63.1855	7038	-0.162142
63.3955	7063.5	-0.163219
63.6099	7089	-0.161976
63.8271	7114.5	-0.158847
64.0447	7140	-0.16122
64.259	7165.5	-0.161597
64.474	7191	-0.163969
64.5458	7200	-0.163029

File: buffer_heating2
H2O_H2O
Furnace temperature 	Time	HeatFlow
/°C	/s	/mW
8.2682	0.000000000	0.089021
7.76022	25.5	0.0862127
7.00478	51	0.118409
6.24254	76.5	0.242839
5.80708	102	0.353186
5.63317	127.5	0.36848
5.61495	153	0.31923
5.3718	178.5	0.246688
5.04972	204	0.174866
5.02946	229.5	0.112778
5.24001	255	0.0625554
5.52352	280.5	0.0237965
5.8271	306	-0.005752476
6.1307	331.5	-0.0287393
6.42634	357	-0.0452619
6.71281	382.5	-0.056947
6.98704	408	-0.0658384
7.25277	433.5	-0.0727668
7.50677	459	-0.0775354
7.75356	484.5	-0.081113
7.99345	510	-0.0832617
8.22832	535.5	-0.0862297
8.45964	561	-0.0870304
8.68726	586.5	-0.0869493
8.91494	612	-0.0864485
9.14101	637.5	-0.085989
9.36482	663	-0.0854902
9.58669	688.5	-0.0849124
9.80755	714	-0.0845949
10.0274	739.5	-0.0836201
10.2462	765	-0.0834639
10.4643	790.5	-0.0833875
10.6824	816	-0.0831921
10.8987	841.5	-0.084031
11.1157	867	-0.0832992
11.3317	892.5	-0.0831639
11.5482	918	-0.0827711
11.7645	943.5	-0.0820022
11.9809	969	-0.0827209
12.1963	994.5	-0.0839736
12.412	1020	-0.0837401
12.6276	1045.5	-0.0841993
12.8428	1071	-0.0833534
13.0591	1096.5	-0.0845041
13.2749	1122	-0.0847453
13.4902	1147.5	-0.0853217
13.706	1173	-0.0858975
13.9212	1198.5	-0.0869453
14.1368	1224	-0.0873618
14.3524	1249.5	-0.0871484
14.5679	1275	-0.0871714
14.7836	1300.5	-0.0875876
14.9985	1326	-0.0881997
15.2133	1351.5	-0.0881437
15.4282	1377	-0.0897748
15.6444	1402.5	-0.0902082
15.86	1428	-0.0897795
16.0756	1453.5	-0.0910351
16.2909	1479	-0.09225
16.5057	1504.5	-0.091997
16.7209	1530	-0.0923112
16.9366	1555.5	-0.0928986
17.1519	1581	-0.0939345
17.3675	1606.5	-0.0930966
17.5825	1632	-0.0949694
17.797	1657.5	-0.0954567
18.0122	1683	-0.095418
18.2281	1708.5	-0.0953407
18.4437	1734	-0.0960999
18.6591	1759.5	-0.0967416
18.8735	1785	-0.0972079
19.0883	1810.5	-0.0979454
19.3038	1836	-0.0980615
19.5193	1861.5	-0.100446
19.7352	1887	-0.100309
19.9502	1912.5	-0.0997463
20.165	1938	-0.100945
20.3801	1963.5	-0.10195
20.5955	1989	-0.101755
20.8109	2014.5	-0.102623
21.0264	2040	-0.103509
21.2417	2065.5	-0.103623
21.4566	2091	-0.104393
21.6712	2116.5	-0.106048
21.8862	2142	-0.105814
22.1013	2167.5	-0.107101
22.3167	2193	-0.107752
22.5323	2218.5	-0.108133
22.7478	2244	-0.108918
22.9626	2269.5	-0.109721
23.1772	2295	-0.111618
23.3923	2320.5	-0.111076
23.6083	2346	-0.112049
23.8236	2371.5	-0.112562
24.0384	2397	-0.1125
24.2539	2422.5	-0.114544
24.4685	2448	-0.115151
24.6833	2473.5	-0.116407
24.8983	2499	-0.117223
25.1141	2524.5	-0.11886
25.3299	2550	-0.118624
25.5451	2575.5	-0.117778
25.7599	2601	-0.119793
25.9749	2626.5	-0.120244
26.1893	2652	-0.119875
26.4047	2677.5	-0.121278
26.6203	2703	-0.122679
26.8358	2728.5	-0.122538
27.0508	2754	-0.122398
27.2657	2779.5	-0.124102
27.4806	2805	-0.123429
27.6957	2830.5	-0.124181
27.9108	2856	-0.125711
28.1263	2881.5	-0.125969
28.3417	2907	-0.125924
28.5565	2932.5	-0.128322
28.7713	2958	-0.129412
28.9863	2983.5	-0.12965
29.2013	3009	-0.130492
29.4168	3034.5	-0.131296
29.6325	3060	-0.131155
29.8477	3085.5	-0.132601
30.0622	3111	-0.133555
30.2769	3136.5	-0.133942
30.4921	3162	-0.134159
30.7075	3187.5	-0.134942
30.9231	3213	-0.135423
31.1382	3238.5	-0.135904
31.3535	3264	-0.136535
31.5681	3289.5	-0.138407
31.7828	3315	-0.137852
31.998	3340.5	-0.137673
32.2134	3366	-0.139637
32.4291	3391.5	-0.139102
32.644	3417	-0.14037
32.8587	3442.5	-0.140323
33.0734	3468	-0.143127
33.2884	3493.5	-0.141917
33.504	3519	-0.142208
33.7196	3544.5	-0.142986
33.9342	3570	-0.143651
34.1493	3595.5	-0.144427
34.3637	3621	-0.144531
34.5792	3646.5	-0.144671
34.7948	3672	-0.144289
35.0098	3697.5	-0.146018
35.225	3723	-0.145748
35.4397	3748.5	-0.146411
35.6545	3774	-0.146981
35.8699	3799.5	-0.147346
36.0849	3825	-0.1484
36.3003	3850.5	-0.148523
36.5153	3876	-0.14872
36.7304	3901.5	-0.149661
36.9449	3927	-0.149951
37.1601	3952.5	-0.149944
37.3757	3978	-0.149212
37.5913	4003.5	-0.150041
37.8057	4029	-0.151409
38.0206	4054.5	-0.151643
38.2352	4080	-0.151414
38.4508	4105.5	-0.152966
38.6656	4131	-0.151699
38.8809	4156.5	-0.15262
39.096	4182	-0.152614
39.3106	4207.5	-0.153257
39.5257	4233	-0.153714
39.7413	4258.5	-0.153709
39.9569	4284	-0.154129
40.1716	4309.5	-0.155641
40.3871	4335	-0.154749
40.602	4360.5	-0.155835
40.8163	4386	-0.155701
41.0312	4411.5	-0.156583
41.2464	4437	-0.156819
41.4629	4462.5	-0.156834
41.6778	4488	-0.157937
41.8927	4513.5	-0.156938
42.1073	4539	-0.157562
42.3218	4564.5	-0.158517
42.5367	4590	-0.158275
42.7521	4615.5	-0.157868
42.9678	4641	-0.158805
43.1828	4666.5	-0.15781
43.3982	4692	-0.158857
43.6127	4717.5	-0.159316
43.8275	4743	-0.16005
44.0423	4768.5	-0.158947
44.2582	4794	-0.159479
44.4737	4819.5	-0.159627
44.6879	4845	-0.159572
44.9041	4870.5	-0.160985
45.1184	4896	-0.16161
45.3341	4921.5	-0.159942
45.5488	4947	-0.160989
45.7642	4972.5	-0.156555
45.9792	4998	-0.159325
46.1935	5023.5	-0.160408
46.4085	5049	-0.163651
46.6233	5074.5	-0.164092
46.8389	5100	-0.16426
47.0659	5125.5	-0.163806
47.2799	5151	-0.16169
47.4928	5176.5	-0.162097
47.7061	5202	-0.161261
47.9205	5227.5	-0.161632
48.1334	5253	-0.163025
48.3484	5278.5	-0.161626
48.5624	5304	-0.161651
48.7767	5329.5	-0.162096
48.9927	5355	-0.161665
49.2065	5380.5	-0.15954
49.4217	5406	-0.159512
49.6365	5431.5	-0.160159
49.851	5457	-0.161297
50.0651	5482.5	-0.161416
50.2794	5508	-0.161678
50.495	5533.5	-0.1632
50.7101	5559	-0.163701
50.9255	5584.5	-0.157272
51.1415	5610	-0.166977
51.3566	5635.5	-0.165169
51.5712	5661	-0.163472
51.7816	5686.5	-0.16183
51.9998	5712	-0.161443
52.2299	5737.5	-0.159277
52.4269	5763	-0.156403
52.6433	5788.5	-0.158905
52.8589	5814	-0.162784
53.0744	5839.5	-0.164576
53.2921	5865	-0.1645
53.5076	5890.5	-0.165676
53.7363	5916	-0.163135
53.9467	5941.5	-0.162661
54.1585	5967	-0.161953
54.3722	5992.5	-0.161445
54.5868	6018	-0.161534
54.8005	6043.5	-0.160846
55.0148	6069	-0.161045
55.2293	6094.5	-0.161716
55.4435	6120	-0.160269
55.6575	6145.5	-0.158208
55.8724	6171	-0.16143
56.0875	6196.5	-0.15928
56.3024	6222	-0.160819
56.5182	6247.5	-0.161925
56.7323	6273	-0.161061
56.947	6298.5	-0.160649
57.1626	6324	-0.160725
57.3782	6349.5	-0.160513
57.5927	6375	-0.161024
57.8077	6400.5	-0.161065
58.0228	6426	-0.162515
58.2369	6451.5	-0.161944
58.4522	6477	-0.164459
58.6674	6502.5	-0.159721
58.8832	6528	-0.15769
59.0976	6553.5	-0.156797
59.3126	6579	-0.15832
59.5272	6604.5	-0.157842
59.7352	6630	-0.157996
59.9517	6655.5	-0.157916
60.1672	6681	-0.160448
60.3839	6706.5	-0.161828
60.6	6732	-0.16146
60.8155	6757.5	-0.160517
61.0316	6783	-0.15979
61.2473	6808.5	-0.159442
61.4641	6834	-0.160031
61.6795	6859.5	-0.158028
61.8938	6885	-0.162306
62.108	6910.5	-0.160917
62.3237	6936	-0.159563
62.5391	6961.5	-0.160261
62.7538	6987	-0.160708
62.9695	7012.5	-0.159411
63.1832	7038	-0.158096
63.3997	7063.5	-0.160432
63.6152	7089	-0.159154
63.8299	7114.5	-0.159099
64.0453	7140	-0.157805
64.2607	7165.5	-0.158937
64.475	7191	-0.159836
64.5501	7200	-0.158321

File: buffer_heating3
H2O_H2O
Furnace temperature 	Time	HeatFlow
/°C	/s	/mW
8.23399	0.000000000	0.110581
7.76524	25.5	0.110587
7.09503	51	0.134445
6.34609	76.5	0.253969
5.88642	102	0.397764
5.6901	127.5	0.460944
5.65739	153	0.444735
5.41697	178.5	0.386472
5.08115	204	0.312802
5.0196	229.5	0.238214
5.21082	255	0.172225
5.49531	280.5	0.115007
5.80165	306	0.0681836
6.10873	331.5	0.0303331
6.40977	357	0.001390523
6.69765	382.5	-0.0206606
6.97681	408	-0.0387549
7.24291	433.5	-0.0513333
7.49918	459	-0.0617038
7.74681	484.5	-0.0681242
7.98871	510	-0.0716464
8.2245	535.5	-0.0744019
8.4568	561	-0.0763526
8.68541	586.5	-0.0783009
8.91113	612	-0.0785864
9.1353	637.5	-0.0787118
9.36018	663	-0.0787574
9.58325	688.5	-0.078284
9.80482	714	-0.0773724
10.0249	739.5	-0.0777983
10.2444	765	-0.0776259
10.463	790.5	-0.0773744
10.6812	816	-0.0764665
10.8975	841.5	-0.0780655
11.115	867	-0.0770794
11.3316	892.5	-0.0772861
11.5484	918	-0.077691
11.7647	943.5	-0.0774808
11.9803	969	-0.0785987
12.1963	994.5	-0.07821
12.4124	1020	-0.0781388
12.6285	1045.5	-0.0783251
12.8437	1071	-0.0791237
13.0595	1096.5	-0.0794868
13.2749	1122	-0.0794154
13.4901	1147.5	-0.079423
13.7062	1173	-0.0808897
13.9217	1198.5	-0.080877
14.1375	1224	-0.0812779
14.3524	1249.5	-0.0819537
14.5676	1275	-0.0820979
14.7836	1300.5	-0.0826941
14.9988	1326	-0.0832703
15.2143	1351.5	-0.0838455
15.4295	1377	-0.0844398
15.6446	1402.5	-0.0853668
15.8599	1428	-0.0855284
16.0753	1453.5	-0.0860427
16.291	1479	-0.0863021
16.5063	1504.5	-0.0871284
16.7212	1530	-0.0874456
16.9364	1555.5	-0.0884852
17.1511	1581	-0.0884305
17.3673	1606.5	-0.089371
17.5827	1632	-0.0896476
17.7983	1657.5	-0.0902554
18.0132	1683	-0.0904729
18.228	1708.5	-0.0906321
18.4432	1734	-0.0909661
18.6584	1759.5	-0.0932434
18.8739	1785	-0.0922357
19.0895	1810.5	-0.0931898
19.3048	1836	-0.0936969
19.5195	1861.5	-0.0941064
19.7347	1887	-0.0953874
19.9497	1912.5	-0.0955246
20.1649	1938	-0.0956813
20.3807	1963.5	-0.0962441
20.596	1989	-0.0975798
20.8107	2014.5	-0.0980252
21.0256	2040	-0.0991072
21.2408	2065.5	-0.0988375
21.4561	2091	-0.0997062
21.6714	2116.5	-0.100921
21.8865	2142	-0.100998
22.1022	2167.5	-0.102173
22.317	2193	-0.102923
22.5316	2218.5	-0.10423
22.7471	2244	-0.104401
22.9625	2269.5	-0.104804
23.1782	2295	-0.105071
23.3935	2320.5	-0.106797
23.6085	2346	-0.10737
23.8229	2371.5	-0.107387
24.0382	2397	-0.108477
24.2536	2422.5	-0.109605
24.4688	2448	-0.11075
24.6842	2473.5	-0.109465
24.8987	2499	-0.112196
25.1137	2524.5	-0.11162
25.3289	2550	-0.113793
25.5444	2575.5	-0.114228
25.7599	2601	-0.114854
25.9747	2626.5	-0.114964
26.1894	2652	-0.115436
26.4046	2677.5	-0.117431
26.6199	2703	-0.118131
26.8355	2728.5	-0.117897
27.0506	2754	-0.119204
27.2659	2779.5	-0.118762
27.4808	2805	-0.119897
27.6966	2830.5	-0.120082
27.9115	2856	-0.12186
28.1266	2881.5	-0.122309
28.3409	2907	-0.122171
28.5557	2932.5	-0.124344
28.7711	2958	-0.123164
28.9868	2983.5	-0.125184
29.2022	3009	-0.12635
29.4167	3034.5	-0.12657
29.6316	3060	-0.127206
29.8471	3085.5	-0.127917
30.0621	3111	-0.12927
30.2773	3136.5	-0.12981
30.4923	3162	-0.130369
30.7068	3187.5	-0.131813
30.9223	3213	-0.131523
31.1379	3238.5	-0.13242
31.3528	3264	-0.133598
31.5683	3289.5	-0.133666
31.7836	3315	-0.134599
31.9981	3340.5	-0.134704
32.2134	3366	-0.135636
32.4286	3391.5	-0.134389
32.6442	3417	-0.135415
32.8589	3442.5	-0.136158
33.0737	3468	-0.136395
33.2885	3493.5	-0.138525
33.504	3519	-0.138949
33.7196	3544.5	-0.13896
33.9345	3570	-0.139739
34.1493	3595.5	-0.140424
34.3641	3621	-0.140024
34.5792	3646.5	-0.141755
34.7944	3672	-0.141019
35.0099	3697.5	-0.142488
35.2254	3723	-0.141847
35.4401	3748.5	-0.142661
35.6543	3774	-0.144221
35.8697	3799.5	-0.145631
36.0856	3825	-0.145344
36.3006	3850.5	-0.145859
36.5157	3876	-0.145927
36.7302	3901.5	-0.146088
36.9454	3927	-0.148128
37.16	3952.5	-0.147378
37.3761	3978	-0.148896
37.5912	4003.5	-0.148611
37.8064	4029	-0.149329
38.0206	4054.5	-0.149471
38.2353	4080	-0.150783
38.4505	4105.5	-0.151278
38.6665	4131	-0.151439
38.8813	4156.5	-0.152249
39.0962	4182	-0.152595
39.3109	4207.5	-0.152831
39.5263	4233	-0.153233
39.7421	4258.5	-0.153265
39.9571	4284	-0.154111
40.172	4309.5	-0.154439
40.386	4335	-0.154194
40.6016	4360.5	-0.155539
40.8166	4386	-0.153559
41.0319	4411.5	-0.156232
41.2472	4437	-0.156653
41.4617	4462.5	-0.156926
41.6768	4488	-0.157181
41.8925	4513.5	-0.158228
42.1079	4539	-0.159202
42.3228	4564.5	-0.158001
42.5373	4590	-0.158441
42.7519	4615.5	-0.15888
42.967	4641	-0.158529
43.1826	4666.5	-0.159576
43.3987	4692	-0.1611
43.6133	4717.5	-0.160106
43.828	4743	-0.160785
44.0428	4768.5	-0.160104
44.2581	4794	-0.162068
44.4734	4819.5	-0.16115
44.6885	4845	-0.16071
44.9035	4870.5	-0.161976
45.1186	4896	-0.157647
45.333	4921.5	-0.160344
45.548	4947	-0.163462
45.7634	4972.5	-0.165992
45.9788	4998	-0.165571
46.1944	5023.5	-0.165426
46.4208	5049	-0.164494
46.631	5074.5	-0.163929
46.8445	5100	-0.163859
47.056	5125.5	-0.163186
47.2672	5151	-0.163098
47.4827	5176.5	-0.162901
47.6972	5202	-0.16391
47.9128	5227.5	-0.164262
48.128	5253	-0.162551
48.3429	5278.5	-0.161387
48.5594	5304	-0.162343
48.7746	5329.5	-0.167348
48.9894	5355	-0.166242
49.2041	5380.5	-0.165209
49.4201	5406	-0.16188
49.6391	5431.5	-0.16238
49.8512	5457	-0.163955
50.0632	5482.5	-0.165402
50.2788	5508	-0.16632
50.4945	5533.5	-0.166038
50.7148	5559	-0.165993
50.9308	5584.5	-0.167312
51.1446	5610	-0.168541
51.3595	5635.5	-0.165332
51.5746	5661	-0.161708
51.7897	5686.5	-0.163828
52.0032	5712	-0.165438
52.2159	5737.5	-0.16625
52.4247	5763	-0.167043
52.6417	5788.5	-0.166203
52.8627	5814	-0.165835
53.0776	5839.5	-0.164415
53.2892	5865	-0.163468
53.5035	5890.5	-0.163174
53.7168	5916	-0.163226
53.9327	5941.5	-0.163441
54.1479	5967	-0.165106
54.3642	5992.5	-0.1634
54.5796	6018	-0.164304
54.7945	6043.5	-0.165245
55.0114	6069	-0.166186
55.2293	6094.5	-0.165751
55.4431	6120	-0.165696
55.6576	6145.5	-0.167759
55.8766	6171	-0.167326
56.0912	6196.5	-0.163547
56.3053	6222	-0.167238
56.5191	6247.5	-0.165034
56.7358	6273	-0.163283
56.9461	6298.5	-0.161407
57.1618	6324	-0.165096
57.3856	6349.5	-0.167195
57.5896	6375	-0.164183
57.8062	6400.5	-0.164152
58.0242	6426	-0.16385
58.2419	6451.5	-0.164343
58.4552	6477	-0.164746
58.6671	6502.5	-0.164644
58.8848	6528	-0.164633
59.1005	6553.5	-0.164496
59.3147	6579	-0.1649
59.5302	6604.5	-0.163574
59.745	6630	-0.163403
59.9609	6655.5	-0.16397
60.1749	6681	-0.163169
60.3892	6706.5	-0.166404
60.604	6732	-0.16454
60.8197	6757.5	-0.163596
61.0342	6783	-0.163463
61.2496	6808.5	-0.158757
61.4644	6834	-0.162406
61.678	6859.5	-0.163499
61.8944	6885	-0.165329
62.1098	6910.5	-0.16707
62.3252	6936	-0.167173
62.5522	6961.5	-0.165064
62.7642	6987	-0.165079
62.9772	7012.5	-0.165003
63.1911	7038	-0.164228
63.4048	7063.5	-0.164297
63.6192	7089	-0.163972
63.8328	7114.5	-0.16309
64.0467	7140	-0.162424
64.2612	7165.5	-0.16095
64.4759	7191	-0.159603
64.5522	7200	-0.161663