Folder: DSC_correction/rawdata

Note: README.md
# pyDSC
Set of python scripts for the correction of DSC data. 

To run the program, please copy all the needed input files into the folder rawdata. Modify the two input files 'Files.txt' and 'Input_params.txt' according to your needs. To run the program, execute the python script pyDSC.py. 

The program normalizes the rawdata, corrects for the empty cell and buffer contributions (if provided), and performs a baseline subtraction. Values like enthalpy change, heat capacity change are autamically calculated. For further informations please refer to the manual of the program.

File: buffer_cooling1
H2O_H2O
Furnace temperature 	Time	HeatFlow
/°C	/s	/mW
64.8589	0.000000000	-0.164194
66.7246	10.5	-0.179544
67.848	21	-0.276806
67.8186	31.5	-0.388692
67.8195	42	-0.478896
67.7249	52.5	-0.547044
67.6023	63	-0.587164
67.4598	73.5	-0.606421
67.2997	84	-0.6036
67.1296	94.5	-0.581897
66.9499	105	-0.550135
66.7646	115.5	-0.51565
66.5736	126	-0.48265
66.3785	136.5	-0.459828
66.1802	147	-0.443318
65.9792	157.5	-0.422466
65.8975	168	-0.393616
65.6918	178.5	-0.345726
65.5038	189	-0.281615
65.3078	199.5	-0.212767
65.1003	210	-0.159569
64.8943	220.5	-0.120948
64.6817	231	-0.0939378
64.4691	241.5	-0.0539425
64.2526	252	-0.0102027
64.0367	262.5	0.0454512
63.8191	273	0.0887181
63.6009	283.5	0.118221
63.3828	294	0.13574
63.1646	304.5	0.152182
62.9461	315	0.168397
62.7275	325.5	0.189743
62.5094	336	0.21821
62.2905	346.5	0.23322
62.0733	357	0.24484
61.8554	367.5	0.244436
61.6378	378	0.253789
61.4202	388.5	0.263037
61.2036	399	0.277928
60.9864	409.5	0.289228
60.7701	420	0.291675
60.5536	430.5	0.290886
60.3377	441	0.296013
60.1218	451.5	0.297632
59.907	462	0.304465
59.6898	472.5	0.306884
59.4763	483	0.307568
59.2601	493.5	0.312671
59.0462	504	0.311854
58.8304	514.5	0.315041
58.616	525	0.31477
58.4012	535.5	0.31169
58.1873	546	0.313178
57.9729	556.5	0.318076
57.759	567	0.319458
57.5455	577.5	0.319518
57.3314	588	0.316257
57.1182	598.5	0.315792
56.9038	609	0.316052
56.6904	619.5	0.315733
56.4757	630	0.316122
56.2634	640.5	0.314005
56.0493	651	0.313923
55.8371	661.5	0.315078
55.6226	672	0.310416
55.411	682.5	0.310463
55.196	693	0.311401
54.9846	703.5	0.313488
54.7701	714	0.313246
54.5574	724.5	0.315209
54.3442	735	0.315698
54.1314	745.5	0.312161
53.9187	756	0.315894
53.7059	766.5	0.309769
53.493	777	0.309329
53.28	787.5	0.302725
53.0675	798	0.30931
52.8538	808.5	0.310916
52.6417	819	0.315116
52.4294	829.5	0.305933
52.2162	840	0.299469
52.0032	850.5	0.299524
51.7911	861	0.300036
51.5786	871.5	0.299032
51.3657	882	0.302016
51.1525	892.5	0.301177
50.9409	903	0.30098
50.7282	913.5	0.296609
50.5151	924	0.294947
50.3026	934.5	0.293338
50.0898	945	0.291694
49.8772	955.5	0.291074
49.6642	966	0.288127
49.4512	976.5	0.292296
49.2388	987	0.288963
49.0262	997.5	0.286234
48.814	1008	0.282548
48.6014	1018.5	0.284004
48.3881	1029	0.285021
48.1757	1039.5	0.282197
47.9635	1050	0.28465
47.7511	1060.5	0.288116
47.5379	1071	0.284593
47.3264	1081.5	0.282817
47.113	1092	0.280211
46.9	1102.5	0.276519
46.6875	1113	0.275937
46.4757	1123.5	0.278489
46.2621	1134	0.281302
46.0491	1144.5	0.278178
45.836	1155	0.275625
45.6242	1165.5	0.275358
45.4117	1176	0.26922
45.1992	1186.5	0.267991
44.9859	1197	0.26425
44.7742	1207.5	0.264111
44.5597	1218	0.26388
44.3487	1228.5	0.268422
44.1351	1239	0.265214
43.9227	1249.5	0.261651
43.7102	1260	0.261366
43.4976	1270.5	0.253111
43.2855	1281	0.250988
43.0733	1291.5	0.251032
42.8608	1302	0.247274
42.648	1312.5	0.247894
42.4355	1323	0.254661
42.2233	1333.5	0.250827
42.0106	1344	0.253031
41.798	1354.5	0.250959
41.5853	1365	0.251434
41.373	1375.5	0.247873
41.1605	1386	0.250956
40.9485	1396.5	0.24812
40.7361	1407	0.246176
40.5227	1417.5	0.243541
40.3105	1428	0.243963
40.0978	1438.5	0.239797
39.8847	1449	0.244249
39.6748	1459.5	0.239277
39.4621	1470	0.2397
39.249	1480.5	0.234591
39.0371	1491	0.232078
38.8245	1501.5	0.230928
38.6139	1512	0.232174
38.4036	1522.5	0.231865
38.1933	1533	0.232158
37.9805	1543.5	0.231738
37.7691	1554	0.2301
37.5551	1564.5	0.227055
37.3424	1575	0.22836
37.1301	1585.5	0.223922
36.9174	1596	0.2232
36.7043	1606.5	0.223754
36.4928	1617	0.222205
36.28	1627.5	0.218792
36.0668	1638	0.222942
35.8539	1648.5	0.221616
35.6413	1659	0.217955
35.4277	1669.5	0.220001
35.2143	1680	0.21775
35.0035	1690.5	0.216025
34.7896	1701	0.216639
34.5779	1711.5	0.215405
34.3657	1722	0.212772
34.1535	1732.5	0.20936
33.9406	1743	0.210427
33.7282	1753.5	0.209662
33.5164	1764	0.20812
33.3038	1774.5	0.206917
33.0917	1785	0.207456
32.8784	1795.5	0.208962
32.6662	1806	0.207683
32.4536	1816.5	0.203485
32.2409	1827	0.19799
32.0269	1837.5	0.195679
31.8163	1848	0.197718
31.6052	1858.5	0.196089
31.3914	1869	0.194269
31.1766	1879.5	0.195778
30.9657	1890	0.194262
30.755	1900.5	0.1908
30.5425	1911	0.193855
30.3298	1921.5	0.193442
30.1163	1932	0.194671
29.9048	1942.5	0.191184
29.6933	1953	0.190618
29.4824	1963.5	0.19202
29.2671	1974	0.186481
29.047	1984.5	0.187576
28.8345	1995	0.186185
28.6227	2005.5	0.185328
28.4108	2016	0.184068
28.1982	2026.5	0.181158
27.9861	2037	0.181488
27.775	2047.5	0.178958
27.562	2058	0.177193
27.3509	2068.5	0.179425
27.1388	2079	0.174526
26.9262	2089.5	0.178952
26.7162	2100	0.175973
26.5038	2110.5	0.17403
26.2911	2121	0.174513
26.0797	2131.5	0.175249
25.8672	2142	0.173303
25.6552	2152.5	0.17373
25.4433	2163	0.172999
25.2311	2173.5	0.17076
25.018	2184	0.169659
24.8078	2194.5	0.164339
24.5956	2205	0.16484
24.383	2215.5	0.162224
24.171	2226	0.160517
23.9581	2236.5	0.159912
23.747	2247	0.155718
23.535	2257.5	0.155926
23.322	2268	0.152967
23.1106	2278.5	0.154866
22.8991	2289	0.153927
22.6865	2299.5	0.154214
22.4753	2310	0.153528
22.2629	2320.5	0.150248
22.0505	2331	0.154492
21.8385	2341.5	0.150117
21.6261	2352	0.149994
21.4153	2362.5	0.148444
21.2029	2373	0.147068
20.9919	2383.5	0.147256
20.7789	2394	0.144763
20.5677	2404.5	0.143756
20.355	2415	0.143237
20.1445	2425.5	0.142836
19.9314	2436	0.140726
19.7197	2446.5	0.142738
19.5071	2457	0.138977
19.2942	2467.5	0.140322
19.083	2478	0.137165
18.8714	2488.5	0.13363
18.6602	2499	0.136294
18.4483	2509.5	0.135887
18.2358	2520	0.131853
18.0247	2530.5	0.131048
17.8123	2541	0.130401
17.6007	2551.5	0.129358
17.3882	2562	0.128749
17.177	2572.5	0.124361
16.9644	2583	0.125628
16.7529	2593.5	0.122877
16.541	2604	0.120955
16.3287	2614.5	0.122422
16.1184	2625	0.119663
15.906	2635.5	0.117517
15.6948	2646	0.119402
15.4838	2656.5	0.113933
15.2718	2667	0.115917
15.0603	2677.5	0.112012
14.85	2688	0.113061
14.6393	2698.5	0.109388
14.4266	2709	0.108323
14.2164	2719.5	0.108854
14.0051	2730	0.106728
13.7955	2740.5	0.103581
13.5842	2751	0.10373
13.3732	2761.5	0.101977
13.1626	2772	0.0994618
12.9519	2782.5	0.0983858
12.741	2793	0.0948407
12.5309	2803.5	0.09364
12.3194	2814	0.0930199
12.1095	2824.5	0.0897665
11.8993	2835	0.088218
11.6898	2845.5	0.0871711
11.4802	2856	0.0851547
11.2695	2866.5	0.0861578
11.0599	2877	0.0866174
10.8503	2887.5	0.087542
10.6423	2898	0.0863882
10.4328	2908.5	0.0835566
10.2254	2919	0.0802757
10.0165	2929.5	0.0802463
9.80748	2940	0.083981
9.60105	2950.5	0.0825956
9.39368	2961	0.0870629
9.18698	2971.5	0.0892034
8.97999	2982	0.0900479
8.77442	2992.5	0.0894915
8.63508	2999.5	0.0898102

File: buffer_cooling2
H2O_H2O
Furnace temperature 	Time	HeatFlow
/°C	/s	/mW
64.9329	0.000000000	-0.160205
66.8671	10.5	-0.177496
67.9287	21	-0.279448
67.8617	31.5	-0.399979
67.8646	42	-0.505085
67.7581	52.5	-0.590547
67.6339	63	-0.650396
67.486	73.5	-0.685681
67.3234	84	-0.695801
67.1503	94.5	-0.684685
66.9686	105	-0.657415
66.7814	115.5	-0.622261
66.5882	126	-0.588826
66.3918	136.5	-0.558532
66.1922	147	-0.52645
65.9901	157.5	-0.494162
65.9011	168	-0.455115
65.6919	178.5	-0.412762
65.5059	189	-0.366418
65.3085	199.5	-0.316782
65.0998	210	-0.26659
64.893	220.5	-0.213483
64.6779	231	-0.161549
64.466	241.5	-0.115779
64.2483	252	-0.0780524
64.0332	262.5	-0.0369775
63.8143	273	0.001460604
63.5968	283.5	0.0341409
63.379	294	0.0621067
63.1603	304.5	0.0904254
62.9425	315	0.115218
62.7239	325.5	0.139496
62.5067	336	0.157213
62.2883	346.5	0.176219
62.0708	357	0.191928
61.8533	367.5	0.208745
61.6368	378	0.219445
61.419	388.5	0.234378
61.2022	399	0.242523
60.9851	409.5	0.250399
60.7696	420	0.257394
60.5524	430.5	0.266418
60.3377	441	0.275736
60.1217	451.5	0.276555
59.9059	462	0.289933
59.6905	472.5	0.293002
59.4757	483	0.298389
59.26	493.5	0.303435
59.0457	504	0.304048
58.8309	514.5	0.306653
58.616	525	0.309008
58.4025	535.5	0.310185
58.1874	546	0.309207
57.9734	556.5	0.311548
57.7596	567	0.31068
57.5461	577.5	0.312388
57.3324	588	0.313807
57.1179	598.5	0.315047
56.904	609	0.314236
56.6915	619.5	0.311828
56.4768	630	0.31861
56.2641	640.5	0.314223
56.0502	651	0.315068
55.8375	661.5	0.318314
55.6242	672	0.314816
55.4106	682.5	0.311935
55.1972	693	0.312384
54.9849	703.5	0.312214
54.7706	714	0.309314
54.5591	724.5	0.308672
54.3449	735	0.308994
54.1336	745.5	0.303962
53.9194	756	0.30875
53.707	766.5	0.307982
53.4938	777	0.307104
53.2815	787.5	0.300664
53.0684	798	0.304328
52.8554	808.5	0.299472
52.643	819	0.299452
52.4304	829.5	0.297789
52.2175	840	0.291979
52.0043	850.5	0.294736
51.7918	861	0.292341
51.5793	871.5	0.293419
51.3672	882	0.294626
51.1537	892.5	0.290658
50.9411	903	0.29139
50.7282	913.5	0.288371
50.5159	924	0.291101
50.3037	934.5	0.285058
50.0898	945	0.287864
49.8778	955.5	0.28607
49.666	966	0.2871
49.4525	976.5	0.281784
49.2406	987	0.281677
49.0266	997.5	0.278651
48.8158	1008	0.276506
48.6014	1018.5	0.279448
48.39	1029	0.277578
48.1759	1039.5	0.275377
47.9638	1050	0.274315
47.7509	1060.5	0.270825
47.5388	1071	0.271749
47.3267	1081.5	0.270373
47.1132	1092	0.272864
46.9009	1102.5	0.270291
46.6888	1113	0.267957
46.4766	1123.5	0.270322
46.2639	1134	0.268024
46.0517	1144.5	0.26674
45.8386	1155	0.265934
45.6259	1165.5	0.262582
45.413	1176	0.262349
45.2017	1186.5	0.259954
44.9875	1197	0.259332
44.7761	1207.5	0.25664
44.5626	1218	0.255796
44.3507	1228.5	0.255691
44.138	1239	0.253496
43.9249	1249.5	0.255021
43.7137	1260	0.253325
43.5008	1270.5	0.254444
43.2881	1281	0.251172
43.0755	1291.5	0.249696
42.863	1302	0.248739
42.6504	1312.5	0.247819
42.4378	1323	0.246509
42.2253	1333.5	0.247111
42.0139	1344	0.243887
41.8007	1354.5	0.242184
41.5873	1365	0.242789
41.3754	1375.5	0.240805
41.1636	1386	0.236961
40.9498	1396.5	0.235032
40.7377	1407	0.234368
40.5247	1417.5	0.232511
40.3134	1428	0.230597
40.1006	1438.5	0.233346
39.8885	1449	0.231431
39.6753	1459.5	0.228601
39.4634	1470	0.230214
39.2504	1480.5	0.227699
39.0384	1491	0.226267
38.8256	1501.5	0.227658
38.6132	1512	0.228789
38.3996	1522.5	0.228124
38.1866	1533	0.224912
37.9742	1543.5	0.22402
37.7586	1554	0.222172
37.5462	1564.5	0.21796
37.3336	1575	0.214588
37.122	1585.5	0.215233
36.9084	1596	0.214299
36.6976	1606.5	0.213816
36.4826	1617	0.214631
36.272	1627.5	0.212945
36.0584	1638	0.209922
35.8462	1648.5	0.208064
35.6338	1659	0.210065
35.4227	1669.5	0.206302
35.2099	1680	0.205138
34.9976	1690.5	0.203446
34.7846	1701	0.204525
34.5742	1711.5	0.203436
34.3619	1722	0.20106
34.1486	1732.5	0.201707
33.9364	1743	0.199651
33.7233	1753.5	0.198766
33.5121	1764	0.198827
33.2997	1774.5	0.200025
33.0866	1785	0.196241
32.8749	1795.5	0.195866
32.6625	1806	0.195718
32.4494	1816.5	0.191719
32.238	1827	0.191096
32.0266	1837.5	0.18956
31.814	1848	0.189429
31.601	1858.5	0.186694
31.3885	1869	0.187742
31.1765	1879.5	0.185669
30.965	1890	0.187213
30.7511	1900.5	0.184473
30.5392	1911	0.183464
30.3274	1921.5	0.182969
30.1158	1932	0.181959
29.9032	1942.5	0.182629
29.6899	1953	0.183529
29.4769	1963.5	0.180397
29.2656	1974	0.177778
29.0523	1984.5	0.177205
28.8406	1995	0.17596
28.6282	2005.5	0.176726
28.4163	2016	0.176478
28.2041	2026.5	0.174715
27.9925	2037	0.17176
27.7803	2047.5	0.172238
27.567	2058	0.171661
27.3556	2068.5	0.170949
27.143	2079	0.169506
26.9308	2089.5	0.166253
26.7188	2100	0.16575
26.5065	2110.5	0.165419
26.2943	2121	0.164144
26.0811	2131.5	0.163293
25.8699	2142	0.162883
25.657	2152.5	0.160602
25.4449	2163	0.16166
25.2329	2173.5	0.159201
25.0202	2184	0.15734
24.8073	2194.5	0.154432
24.597	2205	0.155199
24.3843	2215.5	0.151976
24.1723	2226	0.150011
23.9603	2236.5	0.149031
23.7474	2247	0.150458
23.5347	2257.5	0.148644
23.3241	2268	0.148615
23.1121	2278.5	0.146177
22.8991	2289	0.142995
22.6881	2299.5	0.143723
22.4752	2310	0.143303
22.2636	2320.5	0.145494
22.0514	2331	0.143046
21.8395	2341.5	0.14085
21.6276	2352	0.141345
21.4151	2362.5	0.139516
21.2038	2373	0.138468
20.9916	2383.5	0.139394
20.78	2394	0.135722
20.5685	2404.5	0.137548
20.3552	2415	0.135124
20.1442	2425.5	0.134247
19.9307	2436	0.135841
19.7191	2446.5	0.133216
19.5063	2457	0.13214
19.295	2467.5	0.131221
19.0837	2478	0.127645
18.8715	2488.5	0.131759
18.659	2499	0.129932
18.448	2509.5	0.130112
18.2362	2520	0.126113
18.0238	2530.5	0.128818
17.8122	2541	0.125089
17.6005	2551.5	0.125623
17.389	2562	0.12517
17.1776	2572.5	0.120186
16.9664	2583	0.121036
16.7539	2593.5	0.119926
16.5419	2604	0.120102
16.3312	2614.5	0.119327
16.1195	2625	0.117836
15.9072	2635.5	0.115233
15.6965	2646	0.115327
15.4854	2656.5	0.113753
15.275	2667	0.115279
15.0641	2677.5	0.113444
14.8526	2688	0.112143
14.6409	2698.5	0.114131
14.431	2709	0.110277
14.2185	2719.5	0.108653
14.0085	2730	0.106607
13.7971	2740.5	0.108077
13.5854	2751	0.105889
13.3758	2761.5	0.10724
13.1652	2772	0.102645
12.9549	2782.5	0.103275
12.744	2793	0.102361
12.5337	2803.5	0.0997802
12.3233	2814	0.0999667
12.1132	2824.5	0.0997325
11.9033	2835	0.0979688
11.6927	2845.5	0.0966256
11.4835	2856	0.0957634
11.2726	2866.5	0.094699
11.0639	2877	0.0943182
10.8542	2887.5	0.0933518
10.6457	2898	0.0952693
10.4363	2908.5	0.0942
10.2285	2919	0.0950484
10.0211	2929.5	0.0961607
9.81202	2940	0.0989331
9.60433	2950.5	0.100675
9.39702	2961	0.102032
9.19155	2971.5	0.106045
8.98508	2982	0.109211
8.7794	2992.5	0.10899
8.64349	2999.5	0.109782

File: buffer_cooling3
H2O_H2O
Furnace temperature 	Time	HeatFlow
/°C	/s	/mW
64.7953	0.000000000	-0.161948
66.6852	10.5	-0.176148
67.8448	21	-0.275296
67.8076	31.5	-0.400391
67.8193	42	-0.513442
67.7243	52.5	-0.611111
67.6063	63	-0.683924
67.4634	73.5	-0.730613
67.3039	84	-0.750377
67.1333	94.5	-0.746066
66.9548	105	-0.721198
66.7685	115.5	-0.686555
66.5776	126	-0.649693
66.3823	136.5	-0.621442
66.1837	147	-0.593076
65.9824	157.5	-0.554822
65.9024	168	-0.513372
65.6958	178.5	-0.465626
65.5091	189	-0.411619
65.3134	199.5	-0.357199
65.1054	210	-0.304294
64.8979	220.5	-0.251697
64.6849	231	-0.205679
64.4706	241.5	-0.150419
64.2555	252	-0.106425
64.0372	262.5	-0.0604694
63.8204	273	-0.0199977
63.6012	283.5	0.0180894
63.3831	294	0.0513378
63.1643	304.5	0.0797628
62.9457	315	0.104535
62.7266	325.5	0.128379
62.5083	336	0.150029
62.2896	346.5	0.168528
62.0724	357	0.189382
61.8533	367.5	0.206289
61.6364	378	0.216393
61.4179	388.5	0.229537
61.2015	399	0.243933
60.9839	409.5	0.254666
60.7681	420	0.266436
60.5512	430.5	0.273255
60.3348	441	0.277383
60.1197	451.5	0.283738
59.9035	462	0.288993
59.6881	472.5	0.294813
59.4729	483	0.29868
59.2582	493.5	0.303038
59.0426	504	0.30778
58.828	514.5	0.308557
58.6134	525	0.313865
58.399	535.5	0.311782
58.1845	546	0.313976
57.9707	556.5	0.318476
57.7556	567	0.322361
57.5429	577.5	0.324563
57.3284	588	0.321576
57.1154	598.5	0.319859
56.8999	609	0.322517
56.6871	619.5	0.324124
56.4748	630	0.330728
56.2595	640.5	0.329687
56.0474	651	0.33268
55.8335	661.5	0.330241
55.6202	672	0.329092
55.4081	682.5	0.330671
55.1931	693	0.326412
54.9818	703.5	0.330832
54.768	714	0.329267
54.5554	724.5	0.330323
54.3414	735	0.327483
54.1295	745.5	0.327356
53.9166	756	0.326684
53.7036	766.5	0.325356
53.4908	777	0.322952
53.277	787.5	0.323191
53.0651	798	0.325567
52.8514	808.5	0.321703
52.6403	819	0.322547
52.4249	829.5	0.319302
52.2144	840	0.318285
52.0014	850.5	0.316262
51.7883	861	0.317329
51.5753	871.5	0.316111
51.3633	882	0.317965
51.15	892.5	0.316437
50.9381	903	0.313517
50.725	913.5	0.312849
50.512	924	0.313627
50.3001	934.5	0.312739
50.0873	945	0.308352
49.8748	955.5	0.30794
49.6619	966	0.308702
49.4488	976.5	0.308879
49.2364	987	0.308046
49.0243	997.5	0.307783
48.8106	1008	0.308604
48.5996	1018.5	0.306414
48.3857	1029	0.310378
48.1742	1039.5	0.306111
47.9608	1050	0.30517
47.749	1060.5	0.305461
47.5361	1071	0.300473
47.3235	1081.5	0.30415
47.1096	1092	0.30205
46.8992	1102.5	0.30133
46.6848	1113	0.30201
46.4739	1123.5	0.296277
46.2601	1134	0.299171
46.0486	1144.5	0.298654
45.8347	1155	0.295001
45.6219	1165.5	0.295001
45.4105	1176	0.293301
45.197	1186.5	0.293561
44.9857	1197	0.294227
44.7729	1207.5	0.291769
44.5611	1218	0.28896
44.3473	1228.5	0.288258
44.1355	1239	0.28589
43.9228	1249.5	0.288428
43.7089	1260	0.290505
43.4982	1270.5	0.285654
43.2851	1281	0.283394
43.0728	1291.5	0.282321
42.8596	1302	0.282157
42.6483	1312.5	0.283162
42.4348	1323	0.281792
42.2226	1333.5	0.279994
42.0103	1344	0.281968
41.7978	1354.5	0.279537
41.5856	1365	0.278556
41.3729	1375.5	0.276887
41.1606	1386	0.277375
40.9481	1396.5	0.278201
40.7358	1407	0.275766
40.523	1417.5	0.272529
40.3107	1428	0.271956
40.0986	1438.5	0.273958
39.8863	1449	0.273256
39.6733	1459.5	0.272329
39.4616	1470	0.271252
39.2482	1480.5	0.268251
39.0356	1491	0.268856
38.8237	1501.5	0.268208
38.6107	1512	0.267393
38.3984	1522.5	0.267138
38.1869	1533	0.2634
37.9747	1543.5	0.264662
37.7616	1554	0.265833
37.5494	1564.5	0.264079
37.3374	1575	0.265157
37.1235	1585.5	0.264228
36.9117	1596	0.26405
36.6996	1606.5	0.259156
36.4871	1617	0.260819
36.2744	1627.5	0.260378
36.0639	1638	0.259296
35.8497	1648.5	0.261584
35.6384	1659	0.259787
35.4256	1669.5	0.260741
35.2127	1680	0.262676
35.0009	1690.5	0.25605
34.7885	1701	0.258137
34.5766	1711.5	0.2573
34.3639	1722	0.255971
34.1512	1732.5	0.256683
33.939	1743	0.255164
33.7266	1753.5	0.257069
33.514	1764	0.255834
33.3029	1774.5	0.253916
33.0888	1785	0.252528
32.8773	1795.5	0.251536
32.665	1806	0.253636
32.4525	1816.5	0.253177
32.2398	1827	0.25359
32.0284	1837.5	0.250149
31.8157	1848	0.249916
31.6036	1858.5	0.251452
31.3911	1869	0.249338
31.179	1879.5	0.251313
30.9665	1890	0.251921
30.7542	1900.5	0.24969
30.5418	1911	0.249268
30.3304	1921.5	0.248503
30.118	1932	0.247605
29.9045	1942.5	0.249741
29.6926	1953	0.250256
29.4811	1963.5	0.251002
29.2678	1974	0.24844
29.0558	1984.5	0.247005
28.8437	1995	0.249896
28.6316	2005.5	0.248442
28.4198	2016	0.250973
28.2069	2026.5	0.247984
27.9947	2037	0.24862
27.783	2047.5	0.247509
27.5702	2058	0.246568
27.3578	2068.5	0.252217
27.1451	2079	0.253453
26.9343	2089.5	0.253133
26.7217	2100	0.252487
26.509	2110.5	0.249374
26.2976	2121	0.248898
26.0848	2131.5	0.249926
25.8731	2142	0.249027
25.6605	2152.5	0.248726
25.4482	2163	0.247961
25.2358	2173.5	0.246906
25.0237	2184	0.24438
24.8125	2194.5	0.2475
24.5994	2205	0.244141
24.3884	2215.5	0.244941
24.1828	2226	0.245821
23.9726	2236.5	0.247497
23.76	2247	0.244422
23.5476	2257.5	0.245401
23.3346	2268	0.24368
23.1224	2278.5	0.245088
22.9097	2289	0.243562
22.6964	2299.5	0.243902
22.4831	2310	0.245781
22.2712	2320.5	0.246591
22.0585	2331	0.246778
21.8451	2341.5	0.245717
21.633	2352	0.243113
21.4208	2362.5	0.245132
21.2079	2373	0.244713
20.997	2383.5	0.24627
20.7843	2394	0.247086
20.5727	2404.5	0.245476
20.3595	2415	0.245823
20.1465	2425.5	0.242857
19.9358	2436	0.238143
19.7236	2446.5	0.236504
19.5118	2457	0.233588
19.3001	2467.5	0.23277
19.0879	2478	0.22568
18.8764	2488.5	0.223007
18.6658	2499	0.222241
18.4537	2509.5	0.219012
18.2459	2520	0.215622
18.0371	2530.5	0.215345
17.827	2541	0.212559
17.6155	2551.5	0.21076
17.4051	2562	0.210103
17.1928	2572.5	0.207587
16.9808	2583	0.204614
16.7693	2593.5	0.200686
16.5572	2604	0.200419
16.3467	2614.5	0.19797
16.1352	2625	0.196293
15.9236	2635.5	0.192151
15.7107	2646	0.192117
15.5003	2656.5	0.187571
15.289	2667	0.184351
15.077	2677.5	0.182122
14.8661	2688	0.180747
14.6563	2698.5	0.175704
14.4443	2709	0.174183
14.2332	2719.5	0.170665
14.0226	2730	0.167942
13.8115	2740.5	0.164935
13.6	2751	0.161406
13.3897	2761.5	0.157109
13.1798	2772	0.157392
12.9688	2782.5	0.157336
12.7589	2793	0.15806
12.5501	2803.5	0.152566
12.3378	2814	0.151481
12.1271	2824.5	0.152284
11.9188	2835	0.149589
11.7096	2845.5	0.147514
11.5002	2856	0.148213
11.2904	2866.5	0.146295
11.0818	2877	0.145198
10.8729	2887.5	0.143838
10.6626	2898	0.1453
10.4541	2908.5	0.147952
10.2449	2919	0.149497
10.0393	2929.5	0.149041
9.83397	2940	0.150567
9.63032	2950.5	0.150816
9.42547	2961	0.151956
9.22228	2971.5	0.153906
9.02019	2982	0.153587
8.81811	2992.5	0.153245
8.68342	2999.5	0.154478